"userAcceleration.x","userAcceleration.y","userAcceleration.z"
"0.049674","-0.029352999999999997","0.018096"
"0.088068","-0.039467","0.049861"
"0.09488300000000001","-0.045273","0.055959"
"0.066958","0.023651","0.0039369999999999995"
"-0.065164","0.07282999999999999","-0.050515"
"-0.14727300000000002","0.08678200000000001","-0.070564"
"-0.173713","0.024252000000000003","-0.000465"
"-0.147134","0.026889999999999997","0.010928"
"-0.08366699999999999","0.011023999999999999","0.038847"
"0.005548","-0.008818000000000001","0.062237"
"0.020487000000000002","-0.009152","0.045896"
"0.027507999999999998","-0.008971999999999999","0.036019999999999996"
"0.03349","0.007948","0.015572999999999998"
"0.028285","0.006004","0.005814"
"0.028658999999999997","0.004396","0.008092"
"0.014144","0.001538","0.026338"
"-0.0016699999999999998","-0.00581","0.027881"
"-0.005122","-0.0035450000000000004","0.027599000000000002"
"-0.013765000000000001","0.0026550000000000002","0.023343"
"-0.023173","0.011209","0.018036"
"-0.023163999999999997","0.0074069999999999995","0.013747"
"-0.017482","-0.006529000000000001","0.008919"
"-0.0067209999999999995","0.000536","0.014125"
"-0.006862","0.004109000000000001","0.017224"
"-0.009274","-0.002726","0.016677"
"-0.018729","-0.01205","0.014135"
"-0.022012999999999998","-0.013078","0.012010999999999999"
"-0.035822","-0.008994","0.005787"
"-0.040780000000000004","0.00565","0.0054600000000000004"
"-0.035632","0.004611","0.0054600000000000004"
"-0.030358","0.007315","0.012668"
"-0.030073000000000003","-0.0030399999999999997","0.012326"
"-0.030016","-0.007795000000000001","0.013775"
"-0.023929","-0.008366","0.016224000000000002"
"-0.021769","0.028785","0.033944"
"-0.021331","0.028789999999999996","0.033632999999999996"
"-0.009215000000000001","0.040529","0.060795"
"-0.007181","0.030213","0.075516"
"-0.013687999999999999","0.023482","0.080871"
"-0.021225","-0.008135","0.101865"
"-0.018977","-0.0009140000000000001","0.10248399999999999"
"-0.011781","-0.005651","0.09186"
"-0.012054","-0.014858000000000001","0.076711"
"0.010011","-0.013912","0.053835"
"0.005067","-0.034893","0.032409"
"0.007873999999999999","-0.030031","0.045408"
"0.038931","-0.040163","0.039143"
"0.012272","-0.024498","0.039577"
"0.016561000000000003","-0.025394","-0.013732"
"-0.020708","0.010306999999999998","-0.016721"
"-0.024475","0.022574","-0.006961"
"-0.034716000000000004","0.03377","-0.007882"
"0.008381999999999999","0.049895999999999996","-0.001112"
"0.021255","0.032019","-0.028549"
"0.003489","0.022674","-0.077124"
"-0.003715","0.01901","-0.121504"
"-0.00041600000000000003","0.008604","-0.11895399999999999"
"0.038624","0.0027890000000000002","-0.09685"
"0.048933","-0.021099","-0.065875"
"0.060621","-0.037911","-0.040229"
"0.042768","-0.02914","-0.020932"
"0.054707000000000006","-0.015212999999999999","-0.055442"
"0.05156","0.007214","-0.067212"
"0.050466000000000004","0.031498000000000005","-0.063446"
"0.052649","0.031523","-0.06883"
"0.087939","0.018852","-0.067362"
"0.148484","0.046669","-0.002839"
"0.161904","0.049513","0.069006"
"0.14960299999999999","0.052941999999999996","0.10221799999999999"
"0.052134","0.050547","0.11567999999999999"
"0.015938","-0.009988","0.11657200000000001"
"0.010024","-0.029367","0.116138"
"-0.008862","-0.027737","0.076695"
"-0.014577000000000001","-0.016697999999999998","0.050163"
"-0.001864","-0.02203","0.046447"
"-0.003256","-0.022249","0.029075"
"0.023025999999999998","0.005722","0.045754"
"0.037991000000000004","0.0347","0.063774"
"0.017302","-0.002206","0.084218"
"-0.013415999999999999","-0.007506999999999999","0.047626"
"-0.005457","-0.015547","0.041457"
"-0.030991","-0.028664","0.027077999999999998"
"-0.054916999999999994","0.005156","0.033262"
"-0.051699","0.005475","0.036763"
"-0.057379999999999994","-0.008665","0.028866000000000003"
"-0.074365","-0.0342","0.044149"
"-0.08088200000000001","-0.015225","0.060273"
"-0.099826","-0.0070409999999999995","0.0672"
"-0.098189","-0.00267","0.10484500000000001"
"-0.10893499999999999","0.007981","0.124608"
"-0.1201","0.004818","0.127685"
"-0.092766","0.013453999999999999","0.10464000000000001"
"-0.080252","0.026849","0.09525399999999999"
"-0.081214","0.024919999999999998","0.077288"
"-0.09274299999999999","0.050343","0.058495000000000005"
"-0.10494400000000001","0.056036","0.053279999999999994"
"-0.125945","0.032729","0.078722"
"-0.156878","0.023593","0.0005269999999999999"
"-0.12728599999999998","0.007896","-0.009293000000000001"
"-0.07650900000000001","-0.074392","-0.017772"
"-0.026767000000000003","-0.06932100000000001","-0.029582"
"0.006302","-0.053679","-0.023969999999999998"
"0.035387","-0.057669000000000005","-0.035907999999999995"
"0.048029","-0.047298","-0.041665"
"0.066743","-0.033112","-0.062972"
"0.044443","-0.019863","-0.078304"
"0.036006","-0.027597000000000003","-0.07353"
"0.014053999999999999","0.012294","-0.065843"
"0.0058460000000000005","0.004258","-0.04322"
"-0.039921","-0.001913","-0.025556"
"-0.050178","-0.004508","-0.013472999999999999"
"-0.082821","-0.000279","-0.015175999999999999"
"-0.078976","0.002304","-0.00845"
"-0.079158","-0.000312","-0.004254"
"-0.025889999999999996","-0.028318","0.0009199999999999999"
"-0.0264","-0.037028","-0.001987"
"-0.015666","-0.034013999999999996","-0.0025039999999999997"
"0.005301","-0.041658","0.002568"
"-0.021399","-0.055103","0.030368"
"-0.016051","-0.072007","0.048698000000000005"
"-0.014629","-0.095636","0.07343200000000001"
"-0.029261000000000002","-0.09287999999999999","0.046073"
"-0.032968","-0.0648","0.021009"
"-0.012962999999999999","0.039979","-0.046471"
"-0.010655","0.090412","-0.07958"
"-0.006338","0.09792999999999999","-0.093017"
"-0.027406","0.058017","-0.090455"
"-0.031681","0.031093","-0.053266999999999995"
"-0.025175","0.012277","0.007508"
"-0.017522","-0.018930000000000002","0.059349"
"-0.007536","-0.040847","0.08177100000000001"
"-0.005989","-0.048851","0.07738400000000001"
"0.003588","-0.049564","0.068509"
"-0.0016699999999999998","-0.014868000000000001","0.054229999999999993"
"-0.012757","-0.011561","0.044454"
"-0.069759","0.016881999999999998","0.011568"
"-0.12946","-0.0076359999999999996","-0.015044"
"-0.117546","0.004104","-0.001749"
"-0.070849","0.014515","-0.003015"
"-0.047512","0.037754","-0.022205000000000003"
"-0.039131","0.040072","-0.029783999999999998"
"9.9e-05","0.044932","-0.043367"
"0.006498","0.036291000000000004","-0.049124"
"-0.006285","0.027531","-0.042661000000000004"
"-0.020207","0.0017579999999999998","-0.0037979999999999997"
"-0.018441","-0.011477","0.055539"
"-0.015767","-0.016008","0.074952"
"-0.011106","-0.020878","0.09172000000000001"
"-0.002019","-0.020066999999999998","0.087657"
"0.006017","-0.007659999999999999","0.082564"
"0.002468","0.006881999999999999","0.075994"
"-0.011371","0.016944999999999998","0.070266"
"-0.016501","0.031276","0.061664"
"-0.045993","0.008981999999999999","0.034317"
"-0.037974","-0.003408","0.041132999999999996"
"-0.019405000000000002","-0.0008810000000000001","0.048795"
"-0.025113","-0.027926999999999997","0.051414"
"-0.001842","-0.024011","0.055396"
"0.0023870000000000002","-0.014639","0.055861"
"0.016572","0.00047999999999999996","0.062437"
"0.011807","0.002673","0.055879"
"0.009622","-0.002001","0.05418099999999999"
"0.003582","-0.004671","0.047268"
"0.026135000000000002","-0.0010789999999999999","0.049337"
"0.030008","0.00499","0.053839"
"0.023748","-0.002581","0.063708"
"0.022507","-0.001375","0.039346"
"0.028232","0.017702000000000002","0.026675"
"0.041832999999999995","0.008029999999999999","-0.014022"
"0.043539","3.4e-05","-0.023587"
"0.048541","0.007542","-0.029774000000000002"
"0.050105000000000004","0.01272","-0.065648"
"0.050517","0.025365000000000002","-0.04829"
"0.043708","0.031782","-0.033172"
"0.023763999999999997","-4.1e-05","-0.016437"
"0.026062000000000002","-0.021656","-0.020526"
"0.027532","-0.033201","-0.02529"
"0.040222","-0.032632999999999995","-0.030425"
"0.038782","-0.028695","-0.017525"
"0.057491999999999994","-0.019353","0.010838"
"0.068924","-0.002936","0.020799"
"0.095943","-0.002947","0.031072000000000002"
"0.126998","0.031945","0.05268"
"0.132299","0.073885","0.122822"
"0.126903","0.066057","0.10848699999999999"
"0.045597000000000006","0.07109800000000001","0.08685599999999999"
"-0.012752","0.001384","0.043986000000000004"
"-0.0037560000000000002","-0.040253","0.040286"
"0.010648999999999999","-0.053666","0.043308"
"0.031318","-0.0449","0.037456"
"0.037446","-0.033092","0.026412"
"0.041785","-0.0127","0.025844"
"0.025546","0.016883000000000002","0.023892"
"0.006540000000000001","0.024582","0.015646"
"-0.008729","0.020506","0.003296"
"-0.025835000000000004","0.009994","0.006412999999999999"
"-0.045504","-0.0076939999999999995","0.009884"
"-0.05404","-0.018077","0.018955"
"-0.066258","-0.023819999999999997","0.046044999999999996"
"-0.072404","-0.026198000000000003","0.05581799999999999"
"-0.060795","-0.028630000000000003","0.060673000000000005"
"-0.072631","-0.008435","0.054962000000000004"
"-0.070167","-0.001224","0.057438"
"-0.074834","0.003539","0.057823"
"-0.082","-0.0007509999999999999","0.045973"
"-0.073495","0.0008039999999999999","0.047977"
"-0.06079299999999999","-0.000992","0.057451"
"-0.05327899999999999","-0.025032","0.073489"
"-0.04328","-0.034054","0.087798"
"-0.039597","-0.033312","0.091781"
"-0.032052","-0.027988","0.09310299999999999"
"-0.028758","-0.011028","0.090563"
"-0.017297","-0.000802","0.084734"
"-0.032669","0.018686","0.085405"
"-0.042205","0.009017","0.072713"
"-0.048277999999999995","0.001094","0.063429"
"-0.050448","-0.010481","0.058477999999999995"
"-0.055689999999999996","-0.015934","0.056886"
"-0.054916","-0.013895","0.049852999999999995"
"-0.066008","-0.007306","0.039402"
"-0.08053300000000001","0.005958","0.021346"
"-0.08541499999999999","0.015637","0.017166"
"-0.106544","0.03675","0.042866"
"-0.109767","0.034277999999999996","0.040486"
"-0.099485","0.033273000000000004","0.027777999999999997"
"-0.072233","0.026835","-0.044751"
"-0.020707","0.0071519999999999995","-0.131004"
"-0.021067","-0.011698","-0.136999"
"-0.053821","-0.073495","-0.132274"
"-0.059741999999999996","-0.082998","-0.11666199999999999"
"-0.043434","-0.062283000000000005","-0.112304"
"0.017081","-0.003324","-0.118968"
"0.017950999999999998","0.020546000000000002","-0.092879"
"-0.000768","0.025711","-0.072652"
"-0.035055","0.032364","-0.055566"
"-0.036633","0.033455","-0.054516999999999996"
"-0.023936000000000002","0.046889","-0.062933"
"0.010175","0.011731","-0.056809000000000005"
"-0.005046","-0.001469","-0.055652"
"-0.02053","-0.024079","-0.019438"
"-0.029531","-0.027348","-0.004193"
"-0.035812000000000004","-0.020434","0.008945999999999999"
"-0.035815","-0.013994","0.013322"
"-0.022026","0.003535","0.021204"
"-0.014597999999999998","0.008575","0.024058"
"0.005267","0.009101","0.037577"
"0.010009","0.0033950000000000004","0.040123"
"-0.007387","-0.0008699999999999999","0.036032"
"-0.016662","-0.006137","0.032261"
"-0.030512","-0.018542","0.02061"
"-0.038057","-0.017386000000000002","0.019852"
"-0.041404","-0.009056","0.025135"
"-0.019281","0.003827","0.032714"
"-0.004634","0.011823","0.032829000000000004"
"0.000496","0.016475","0.029015"
"-0.005386","0.006523","0.025247"
"-0.006461","0.000889","0.01964"
"-0.010573","0.009304999999999999","0.019068"
"-0.010575","0.0012779999999999998","0.016881"
"-0.0077540000000000005","-0.00587","0.009727"
"-0.007778","-0.005098","-5.3e-05"
"0.006275","0.0035399999999999997","-0.003393"
"0.0069689999999999995","0.000499","0.005252000000000001"
"0.003464","0.0029879999999999998","0.009555"
"0.0010429999999999999","-5.2000000000000004e-05","0.02652"
"0.007648","0.00978","0.040433"
"0.0051990000000000005","0.005019","0.027801999999999997"
"0.010542000000000001","-0.00034500000000000004","0.022237"
"0.013338999999999998","0.000837","0.028612000000000002"
"0.011603","0.000728","0.026001"
"0.01149","0.0064719999999999995","0.046024"
"0.017349","0.009404000000000001","0.050983"
"0.014775","0.005717","0.049758"
"0.016183000000000003","-0.003102","0.043243000000000004"
"0.017161000000000003","-0.0032310000000000004","0.051395"
"0.024543000000000002","-0.00236","0.060875"
"0.024291999999999998","-0.001436","0.054762"
"0.015663","0.001525","0.047756"
"0.014062","0.0024010000000000004","0.042199"
"0.015165000000000001","-0.00043","0.041806"
"0.015611000000000002","0.002353","0.041125999999999996"
"0.014156","0.000136","0.039236"
"0.0143","-0.003897","0.034136"
"0.014111000000000002","0.0014060000000000001","0.037623000000000004"
"0.011023999999999999","0.004313","0.044564"
"0.007451999999999999","0.0033490000000000004","0.053415"
"0.00782","0.000264","0.055099"
"0.007379999999999999","-0.00011999999999999999","0.055657000000000005"
"4.6e-05","-0.000231","0.042231"
"0.005751","-0.000155","0.04427"
"-0.004956","0.00073","0.038862"
"-0.007731999999999999","0.0029100000000000003","0.03841"
"-0.007464","0.004243","0.041911000000000004"
"-0.013751","0.003825","0.046416000000000006"
"-0.010051000000000001","-0.005911","0.050807"
"-0.012665000000000001","-0.009216","0.049208"
"-0.016331000000000002","-0.009359000000000001","0.051623"
"-0.014338","0.002623","0.062516"
"-0.016237","0.002653","0.06641799999999999"
"-0.005827000000000001","0.000417","0.067116"
"0.00065","-0.008029999999999999","0.054105999999999994"
"-0.002246","-0.010683","0.052601999999999996"
"-0.001301","-0.013338999999999998","0.047414"
"-0.010738","-0.014916999999999998","0.025943"
"-0.003989","-0.010206999999999999","0.025213"
"-0.003778","-0.008964","0.025082"
"-0.010637","-0.009412","0.028341"
"-0.009641","-0.005682","0.036494"
"-0.011831","-0.001387","0.042717000000000005"
"-0.025042","-0.002176","0.043677999999999995"
"-0.036574","-0.006287","0.033"
"-0.037838","-0.002507","0.032527"
"-0.047215","-0.00033999999999999997","0.026621"
"-0.061015999999999994","0.002911","0.028797000000000003"
"-0.059163","0.005575","0.024938"
"-0.049836","0.003703","0.034806000000000004"
"-0.041948","0.00448","0.038897"
"-0.038352","0.0036829999999999996","0.033984"
"-0.039245","-0.000741","0.0022649999999999997"
"-0.040588","0.004164","-0.002096"
"-0.040024000000000004","0.004207","-0.0018800000000000002"
"-0.036153","0.009977","-0.012535"
"-0.03776","0.003901","-0.013484000000000001"
"-0.037552999999999996","0.008827","-0.006866"
"-0.040063","0.007455","0.0017920000000000002"
"-0.038810000000000004","0.006987","0.004849"
"-0.035547","0.008522","0.010646"
"-0.029514999999999996","0.007205","0.012284999999999999"
"-0.011608","0.006162","0.006101"
"-0.007831","0.004523","0.005225"
"-0.012253","0.006004","0.014524"
"-0.020627","-0.005679","0.022738"
"-0.025502","-0.013994999999999999","0.025526"
"-0.022565","-0.026017000000000002","0.041235"
"-0.012074","-0.010147","0.066973"
"-0.013283000000000001","-0.0053219999999999995","0.069496"
"-0.015181","-0.0016300000000000002","0.059199"
"-0.018433","0.000924","0.026943"
"-0.017966","-2.8000000000000003e-05","0.015716"
"-0.013678000000000001","-0.004411","0.005611"
"-0.0057020000000000005","-0.005021","0.006091"
"-0.009255","-0.005794","0.010133"
"-0.012719","0.0033659999999999996","0.008962999999999999"
"-0.016165000000000002","0.009470999999999999","0.0066489999999999995"
"-0.018941","0.009044","0.006559000000000001"
"-0.010541","0.009758","0.006104999999999999"
"-0.007946","0.009309999999999999","0.008739"
"-0.004728","0.001928","0.011951"
"0.000541","-0.005511","0.017402"
"0.006181","-0.009422","0.023183000000000002"
"0.005952000000000001","-0.009064000000000001","0.025825999999999998"
"0.0036560000000000004","-0.004368","0.03098"
"0.005464","-0.00473","0.032272"
"0.003472","-0.0031969999999999998","0.031735"
"-0.009935","-0.0024809999999999997","0.029653"
"-0.008249","-0.0015869999999999999","0.031661"
"-0.008737","-0.00079","0.035342"
"-0.011666","0.002132","0.034520999999999996"
"-0.021168","0.000918","0.034041"
"-0.021625","-0.001366","0.034344"
"-0.025075999999999998","0.001216","0.032320999999999996"
"-0.024086","0.0038009999999999997","0.035418"
"-0.016566","0.0015019999999999999","0.037198"
"-0.010181","0.005444","0.0371"
"-0.010062999999999999","0.001352","0.033624"
"-0.016212999999999998","-0.0053560000000000005","0.028722"
"-0.011222","-0.006253","0.024728"
"-0.008222","-0.0028190000000000003","0.025889999999999996"
"-0.011176","-0.002093","0.027056999999999998"
"-0.011918999999999999","0.0007019999999999999","0.02493"
"-0.010695","0.003317","0.025833"
"-0.006124","0.008362","0.023869"
"-0.00476","0.010115","0.022638"
"-0.005884","0.0066170000000000005","0.019453"
"-0.005418","0.001198","0.016117"
"-0.00878","-0.00474","0.020179"
"-0.010839","-0.005092","0.02441"
"-0.012648000000000001","-0.004726","0.026489"
"-0.012844999999999999","-0.000169","0.029463"
"-0.013408000000000002","0.003107","0.038147"
"-0.010931999999999999","0.002496","0.040091"
"-0.008338","-0.002633","0.037601"
"-0.0069900000000000006","-0.004698","0.035268"
"-0.008595","-0.006648","0.029349"
"-0.017183","-0.001811","0.025031"
"-0.018281","0.0020210000000000002","0.021945"
"-0.015636","0.004377000000000001","0.020777"
"-0.011547","0.004234","0.021241"
"-0.010967","0.003759","0.020732"
"-0.010205","0.003047","0.022928"
"-0.009878","0.000144","0.026154000000000004"
"-0.010169","0.0020050000000000003","0.023967"
"-0.003104","0.000679","0.025404"
"0.002344","-0.003106","0.031105"
"0.002278","-0.002806","0.031567000000000005"
"0.002462","-0.0009289999999999999","0.033143"
"0.00075","0.000618","0.037694"
"0.0006900000000000001","-0.001003","0.036607"
"-0.005961999999999999","-0.001379","0.038043"
"-0.012281","-0.001756","0.041035"
"-0.012776000000000001","-0.0034100000000000003","0.042187999999999996"
"-0.014041","-0.004004","0.043521"
"-0.015158000000000001","-0.0037549999999999997","0.04018"
"-0.01256","-0.003587","0.039519"
"-0.007589","0.00515","0.035884"
"-0.009323","0.0040939999999999995","0.036224"
"-0.013671","0.0040869999999999995","0.038024"
"-0.018849","0.003481","0.036470999999999996"
"-0.020881","-0.000148","0.039225"
"-0.018283","-0.000842","0.037525"
"-0.013713","-0.0025109999999999998","0.028988"
"-0.019143","-0.001164","0.027819999999999998"
"-0.015022","0.00031","0.024821"
"-0.016222999999999998","0.002827","0.024145"
"-0.016059999999999998","-0.002135","0.021005000000000003"
"-0.020772","-0.002566","0.023250999999999997"
"-0.020718","-0.002559","0.023366"
"-0.023559","-0.000995","0.028567000000000002"
"-0.028239999999999998","-0.001185","0.028687999999999998"
"-0.024692","-0.005257","0.029383999999999997"
"-0.021807","-0.006451999999999999","0.029069"
"-0.019264","-0.003275","0.027104000000000003"
"-0.019735","-0.001911","0.027668"
"-0.022432","0.001034","0.025237"
"-0.019462","0.002675","0.024416999999999998"
"-0.019295","0.0036299999999999995","0.022444"
"-0.016382","0.006052","0.019325"
"-0.01855","0.005782","0.017824"
"-0.01934","0.009184000000000001","0.024331000000000002"
"-0.01958","0.011477","0.024159"
"-0.017823","0.008435","0.0309"
"-0.014147999999999999","0.009184000000000001","0.03333"
"-0.002627","0.000687","0.040219"
"0.009618999999999999","-0.000724","0.037991000000000004"
"0.013366999999999999","-0.000592","0.035225"
"0.016556","0.001737","0.032674"
"0.01365","0.0005200000000000001","0.030307"
"0.012303","-0.0008560000000000001","0.031238"
"0.008698000000000001","-0.007412","0.030381000000000002"
"0.007853","-0.006176","0.033132999999999996"
"0.003192","-0.003975","0.033944999999999996"
"-0.0024460000000000003","0.001395","0.029881"
"-0.008919","0.000848","0.031098"
"-0.01567","-0.002456","0.033963"
"-0.011855","0.001394","0.03221"
"-0.015552000000000002","0.005790999999999999","0.027083999999999997"
"-0.020852000000000002","0.005913","0.030093"
"-0.036349","0.009417","0.034709"
"-0.03254","0.011556","0.036356"
"-0.03874","0.01182","0.044229000000000004"
"-0.05295","-8.3e-05","0.039033"
"-0.051039999999999995","-0.007687","0.037424"
"-0.052566999999999996","-0.012813","0.038824000000000004"
"-0.044591000000000006","-0.014632","0.040284"
"-0.042581","-0.013791","0.037818"
"-0.043081","-0.018914","0.043410000000000004"
"-0.03966","-0.007922","0.039231999999999996"
"-0.043505","0.006689","0.035123"
"-0.044571","0.005035","0.030374"
"-0.042235","0.013007","0.027188999999999998"
"-0.031656000000000004","-0.00028399999999999996","0.027208"
"-0.034276","-0.0032649999999999997","0.028281"
"-0.023688999999999998","-0.009845999999999999","0.030949"
"-0.025047999999999997","-0.010348999999999999","0.031743"
"-0.025960000000000004","-0.009175","0.030399000000000002"
"-0.030807","-0.0036799999999999997","0.031497000000000004"
"-0.036041000000000004","-0.000346","0.029162999999999998"
"-0.037314","-0.000442","0.028502999999999997"
"-0.034685","0.009179000000000001","0.027906999999999998"
"-0.03336","0.014516999999999999","0.023465"
"-0.033386","0.018282","0.019781"
"-0.032582","0.007956","0.021440999999999998"
"-0.0283","0.0035960000000000002","0.026226999999999997"
"-0.026487","0.004861","0.025563"
"-0.025832","0.006717","0.032318"
"-0.021738","0.004703","0.047072"
"-0.025033","0.011604000000000001","0.046357"
"-0.046508999999999995","-0.005281","0.050764"
"-0.039689","-0.019116","0.052514"
"-0.03893","-0.019239","0.053354"
"-0.01736","-0.012786","0.061409000000000005"
"-0.019446","-0.010032","0.054022"
"-0.023422","-0.0033","0.052086"
"-0.005971","0.003172","0.055669"
"-0.009949","-0.004952000000000001","0.038655"
"-0.014315000000000001","-0.018072","0.041393"
"0.031444","0.0051600000000000005","0.024391"
"0.023625999999999998","0.008537999999999999","0.035446"
"0.032919","0.007367","0.02868"
"0.04867","-0.003993","0.039317000000000005"
"0.049107","0.003058","0.041562"
"0.047527999999999994","-0.001243","0.050424000000000004"
"0.039577","0.004408","0.042477999999999995"
"0.036157","-0.000528","0.047342"
"0.022574","-0.0053950000000000005","0.058586"
"0.080096","0.022813999999999997","0.07858"
"0.05848099999999999","0.00899","0.077404"
"0.06718099999999999","-0.000371","0.09191"
"0.002757","-0.011175","0.094183"
"-0.000319","-0.018449","0.093902"
"0.024666999999999998","-0.0063219999999999995","0.096332"
"0.035682","0.007297","0.10025099999999999"
"0.038613999999999996","0.007566","0.100398"
"0.038225999999999996","0.014136000000000001","0.083878"
"0.021462000000000002","0.005473","0.065027"
"0.005301","0.010655","0.065605"
"0.008320999999999999","0.029105000000000002","0.055525"
"0.026033999999999998","0.012582","0.03627"
"0.035306","-0.008522","0.043564"
"0.034099000000000004","-0.01001","0.05126"
"0.036420999999999995","-0.004325","0.05517999999999999"
"0.019316","0.001181","0.037425"
"0.007431","0.00317","0.027647"
"-0.001497","0.001283","0.035022000000000005"
"-0.012343999999999999","-0.001443","0.026847000000000003"
"-0.017582","0.00043799999999999997","0.027879"
"-0.05386900000000001","-0.007254000000000001","-0.008749"
"-0.038482","-0.011826999999999999","-0.016697"
"-0.037467","-0.0056","-0.007232"
"-0.048277","0.02022","0.008836"
"-0.022529","0.025551","0.00413"
"-0.021143000000000002","0.025592","0.004294"
"0.0014810000000000001","0.035255","-0.02145"
"0.013741","0.019201","-0.025124"
"0.015836000000000003","0.013734999999999999","-0.017565"
"0.025178","0.003948","-0.009864"
"0.046948000000000004","-0.001322","-0.006718000000000001"
"0.056764999999999996","-0.0035399999999999997","0.000719"
"0.06883","0.00014199999999999998","0.004136"
"0.082368","0.003165","0.004292"
"0.088904","0.002263","0.019825"
"0.089643","0.0015660000000000001","0.037406"
"0.10070599999999999","0.0005780000000000001","0.046849"
"0.10609600000000001","-0.000405","0.060103"
"0.105653","0.0017050000000000001","0.06964"
"0.109644","0.013016","0.06742100000000001"
"0.113149","0.020152","0.068405"
"0.10548099999999999","0.027745999999999996","0.073724"
"0.087129","0.023882","0.090407"
"0.079358","0.021519","0.093433"
"0.039126999999999995","0.003355","0.0872"
"0.035778","0.002933","0.091489"
"0.029554","0.005724","0.10880999999999999"
"0.033963","0.01697","0.113185"
"0.037911","0.017737","0.110239"
"0.049211000000000005","0.018557","0.100406"
"0.023062","-0.018968000000000002","0.107333"
"0.017361","-0.02814","0.11164400000000001"
"-0.012915000000000001","-0.028366000000000002","0.10108099999999999"
"-0.012034999999999999","-0.028991000000000003","0.087116"
"-0.025541","-0.024553","0.07651000000000001"
"-0.058950999999999996","0.0032450000000000005","0.056152"
"-0.086867","-0.003076","0.045623000000000004"
"-0.132867","-0.00457","0.058966"
"-0.21409","0.033336000000000005","0.021283"
"-0.24734699999999998","0.055719000000000005","-0.027397"
"-0.215392","0.0407","-0.04813"
"-0.191662","0.061086","-0.07412"
"-0.19081900000000002","0.054486","0.012597"
"-0.179809","0.043410000000000004","0.023624000000000003"
"-0.176811","0.038252999999999995","0.019540000000000002"
"-0.141868","-0.0043","-0.001018"
"-0.07209299999999999","-0.048706","-0.030631"
"-0.053274","-0.066612","-0.032872000000000005"
"-0.023683000000000003","-0.10875699999999999","-0.024156999999999998"
"-0.014969","-0.133043","-0.005642"
"-0.015633","-0.168762","0.005461"
"-0.022625","-0.141493","0.028207999999999997"
"-0.056816","-0.107254","0.032353"
"-0.058384000000000005","-0.10818599999999999","0.026568"
"-0.086475","-0.070401","0.039057"
"-0.087962","-0.054492","0.076522"
"-0.083615","-0.054616","0.083675"
"-0.086786","0.04672","0.080683"
"-0.094782","0.21082399999999998","0.000202"
"-0.1016","0.20926799999999998","-0.006476999999999999"
"-0.140997","0.138658","-0.015856"
"-0.1195","-0.017786","-0.011387000000000001"
"-0.123146","-0.06360700000000001","-0.026831"
"-0.089122","-0.053139","-0.050874"
"-0.03151","-0.031141000000000002","0.006051"
"-0.028516000000000003","-0.031232","0.038526"
"-0.012459999999999999","-0.007811","0.099474"
"0.002827","0.013522","0.120307"
"-0.0038350000000000003","0.009622","0.10910299999999999"
"-0.006536","0.003166","0.076054"
"-0.002525","0.00853","0.06595"
"-0.000992","-0.000136","0.049883"
"0.014163","-0.014698","0.022255"
"0.022327","-0.014472","0.021688"
"0.042949","-0.010561","0.053234000000000004"
"0.081791","-0.003978","0.110784"
"0.103328","0.032817","0.11691099999999999"
"0.11327100000000001","0.018716","0.09869700000000001"
"0.15495899999999999","0.022631000000000002","0.050315"
"0.159813","0.012725","0.028754000000000002"
"0.169249","0.026080000000000002","0.028762"
"0.154921","0.039731","0.008218000000000001"
"0.151225","0.039314999999999996","0.007554000000000001"
"0.160511","0.08139400000000001","-0.019704"
"0.123458","0.048732","-0.038607999999999996"
"0.079286","0.0046170000000000004","-0.021825999999999998"
"0.054946","-0.012514","-0.008228000000000001"
"0.008062999999999999","-0.033544","0.024097999999999998"
"0.0010869999999999999","-0.030855","0.030654"
"0.010286","-0.009222","0.049158"
"0.016209","0.014669999999999999","0.08582200000000001"
"0.007983","0.010793","0.093316"
"0.008625","0.010879999999999999","0.09389"
"-0.019705","-0.004176","0.095449"
"-0.025236","-0.017835","0.09444"
"-0.031374","-0.016544","0.084972"
"-0.029424000000000002","-0.013553","0.078593"
"-0.028980000000000002","0.001067","0.07799400000000001"
"-0.026826999999999997","0.014097","0.085024"
"-0.027155000000000002","0.033511","0.09035499999999999"
"-0.039733","0.028447000000000004","0.087384"
"-0.044697","0.006881999999999999","0.079532"
"-0.040376","-0.012048999999999999","0.06763200000000001"
"-0.03277","-0.020367","0.057925"
"-0.025562","-0.014038","0.051467"
"-0.019954","-0.008236","0.030781"
"-0.021434","-0.00045599999999999997","0.002982"
"-0.022733","0.002013","-0.0060409999999999995"
"-0.014506","0.009725","-0.0031"
"-0.007898","0.008402","0.015161"
"-0.003708","0.008688","0.019144"
"0.008517","0.005053","0.019528999999999998"
"0.020952000000000002","0.006613","0.015650999999999998"
"0.020202","0.003276","0.018351"
"0.015977","0.005414","0.020546000000000002"
"0.016208","0.0013859999999999999","0.024366"
"0.011256","0.0021079999999999996","0.026418999999999998"
"0.010136","0.007648","0.028894"
"0.007731","0.00873","0.027624"
"-0.00088","0.012397","0.035887"
"-0.004282","0.010033","0.039178"
"-0.003796","0.009288","0.042683"
"0.0021420000000000002","0.006231","0.042806"
"0.0006580000000000001","-0.001444","0.041798"
"0.002534","-0.0007070000000000001","0.039288"
"-0.004547","-0.003053","0.034332"
"-0.010905","-0.007681","0.033616"
"-0.017006999999999998","-0.003693","0.034293000000000004"
"-0.015425999999999999","0.002262","0.03381"
"-0.016875","-0.001857","0.041573"
"-0.021766","0.0059299999999999995","0.046069"
"-0.020072","0.006928","0.04702"
"-0.013973","0.007206000000000001","0.049651999999999995"
"-0.0147","-0.002595","0.054542999999999994"
"-0.008989","-0.004013","0.060187"
"-0.000883","-0.007956999999999999","0.07632699999999999"
"0.00022999999999999998","-0.009154","0.08076699999999999"
"0.008334000000000001","-0.003922999999999999","0.08023999999999999"
"0.004108","-0.000277","0.068094"
"0.001454","0.001849","0.059431"
"0.003915999999999999","0.00498","0.06262899999999999"
"0.00264","0.005619","0.060103"
"-0.016809","0.0046240000000000005","0.05457000000000001"
"-0.015548","-0.00098","0.059694000000000004"
"-0.016707","0.000383","0.063387"
"-0.01941","-0.005435","0.05438"
"-0.012409","0.000386","0.05581799999999999"
"-0.016238","0.000998","0.057677"
"-0.008902","-0.000725","0.062983"
"-0.0023989999999999997","-0.0015810000000000002","0.057196000000000004"
"-0.002459","-0.001482","0.063394"
"-0.0006","-0.001191","0.063749"
"-0.00449","-0.0002","0.065604"
"-0.005575","0.001689","0.060948"
"-0.007301","0.001381","0.053774"
"-0.0058590000000000005","0.002226","0.052901"
"-0.0072","0.0020829999999999998","0.054473"
"-0.00155","-0.001565","0.057315"
"-0.000709","-0.002013","0.05912100000000001"
"0.0015630000000000002","-0.00144","0.052992"
"0.00025499999999999996","0.00244","0.052174"
"-0.001268","0.002457","0.051576"
"-0.000656","0.00067","0.055576"
"0.00058","0.00329","0.051263"
"-0.000617","0.002844","0.055574"
"0.0020440000000000002","-0.002232","0.050892"
"0.002561","-0.000524","0.051436"
"0.003081","0.0018","0.05217"
"0.001652","-0.000644","0.053283000000000004"
"0.0028640000000000002","-0.000328","0.051440999999999994"
"-0.000651","-0.00028700000000000004","0.046143"
"0.0009429999999999999","0.001082","0.04442"
"0.005571","0.0114","0.05360499999999999"
"0.011694","0.011008","0.053609000000000004"
"-0.004307","-0.000433","0.052378999999999995"
"-0.009221","-0.001194","0.050436"
"-0.006184","-0.000206","0.05175"
"0.00545","-6.7e-05","0.059878"
"0.000341","-0.000223","0.052378999999999995"
"-0.0034939999999999997","-0.002196","0.047581"
"-0.00771","-0.0012380000000000002","0.051508000000000005"
"-0.007431999999999999","-0.005692","0.050993000000000004"
"-0.007928","-0.006451999999999999","0.049089"
"0.004157","0.002889","0.043358999999999995"
"0.002326","0.010518000000000001","0.047214"
"-0.017682","0.002578","0.043244"
"-0.017797999999999998","0.000408","0.04658"
"-0.009373999999999999","-0.0008119999999999999","0.049531"
"-0.005963","-0.001395","0.052733"
"-0.004229999999999999","-0.002916","0.055651"
"-0.001893","0.000133","0.048367"
"-0.001854","0.000147","0.048813999999999996"
"0.0009660000000000001","0.003518","0.050066"
"0.00013700000000000002","0.005482","0.048968"
"-0.00045999999999999996","0.004713","0.048645999999999995"
"0.003361","0.001802","0.046310000000000004"
"-0.00015","0.0052060000000000006","0.049000999999999996"
"-0.003676","0.008402","0.052399"
"0.0007599999999999999","0.002919","0.048152999999999994"
"0.0018739999999999998","-0.002088","0.052667"
"0.006017","-0.0044340000000000004","0.056251"
"0.0061200000000000004","-0.004993","0.063609"
"-0.001808","-0.0038640000000000002","0.048918"
"-0.001604","-0.003843","0.049141000000000004"
"-0.004932","-0.0025039999999999997","0.055041"
"-0.0039109999999999995","-0.005753","0.06687799999999999"
"0.00040899999999999997","-0.006936","0.06489600000000001"
"-0.0015220000000000001","-0.004847","0.060014"
"-0.010469","-0.003184","0.06465900000000001"
"-0.011503","-0.004517","0.065636"
"-0.003225","-0.004346","0.060323"
"-0.005472","-0.002443","0.064982"
"-0.006523","-0.0019399999999999999","0.06288200000000001"
"-0.024068","-0.003557","0.048083999999999995"
"-0.00043099999999999996","0.011259","0.066166"
"-0.006431999999999999","0.0033229999999999996","0.071539"
"-0.014859","8e-06","0.055902"
"-0.011737000000000001","-0.000386","0.05252999999999999"
"-0.011729999999999999","0.0028350000000000003","0.050862"
"-0.012077","0.000985","0.051749"
"-0.0049759999999999995","0.0032240000000000003","0.05461900000000001"
"-0.00443","-9.1e-05","0.05429400000000001"
"-0.014562","-0.000754","0.048877"
"-0.010842000000000001","0.004729","0.048263"
"-0.012402","0.002597","0.047786"
"-0.020824000000000002","0.003948","0.054340999999999993"
"-0.02225","-0.000245","0.055537"
"-0.015916","0.005502","0.061111"
"-0.012444","0.0030989999999999998","0.068579"
"-0.01404","-0.006128","0.07044500000000001"
"-0.006118","-0.003093","0.078849"
"-0.000244","-0.002419","0.073791"
"0.006229999999999999","-0.004393","0.07549299999999999"
"0.007370000000000001","-0.00197","0.069757"
"0.016079","-0.002107","0.060128999999999995"
"0.014381","-0.006822","0.05910599999999999"
"0.019897","-0.005215","0.052122"
"0.025315999999999998","0.003994","0.040594"
"0.019708","0.003065","0.028299"
"0.019143","0.005077","0.026612"
"0.021803","0.009698","0.026407999999999997"
"0.017365000000000002","0.008964","0.02646"
"0.015478","0.007515999999999999","0.030782999999999998"
"0.022671","0.013852000000000001","0.029635"
"0.008458","-0.004408","0.031269"
"0.010324","0.007542","0.030167000000000003"
"0.013040000000000001","0.004765999999999999","0.030149000000000002"
"0.00246","0.01037","0.033612"
"0.0006129999999999999","0.013366999999999999","0.035646"
"-0.005195","0.011816","0.041011"
"-0.003389","0.004038","0.043535000000000004"
"0.000221","0.007481999999999999","0.045918"
"0.005137","0.010737","0.04"
"0.0057090000000000005","0.0038619999999999995","0.033125999999999996"
"0.00048300000000000003","0.003218","0.031587"
"-0.014134","0.004593","0.038844"
"-0.014841","0.0008289999999999999","0.044828"
"-0.013315","0.003286","0.050506"
"-0.016863999999999997","0.006189","0.059864999999999995"
"-0.013075","-0.0043560000000000005","0.062668"
"-0.00992","-0.0066099999999999996","0.067574"
"-0.012881","-0.011828","0.068188"
"-0.016024","-0.010854","0.06902"
"-0.006298","-0.009914","0.065374"
"-0.015642","-0.013453999999999999","0.059244000000000005"
"-0.018103","-0.011765000000000001","0.058070000000000004"
"-0.015999","0.00173","0.053812"
"-0.010077","0.005215999999999999","0.051078"
"-0.010091","0.004332","0.047674"
"-0.012756","0.004156","0.048701"
"-0.017981999999999998","0.000715","0.051774"
"-0.01975","-0.001049","0.046921"
"-0.018402","0.000349","0.047362"
"-0.017536000000000003","0.0010019999999999999","0.050058"
"-0.017113","0.000965","0.051849"
"-0.013212999999999999","0.001816","0.05173200000000001"
"-0.010414","0.000291","0.053377999999999995"
"-0.009134","0.0072120000000000005","0.049432"
"-0.005673","0.033627","0.044458"
"-0.012643999999999999","0.030056","0.041994"
"-0.028711","-0.0077540000000000005","0.045258"
"-0.020553000000000002","-0.011401","0.057701"
"-0.010024","-0.012371","0.066522"
"-0.010225","-0.012631","0.06642200000000001"
"-0.01465","-0.011715","0.061333000000000006"
"-0.01648","-0.004987","0.059684"
"-0.010883","0.001632","0.061711"
"-0.010903","0.003186","0.060695000000000006"
"-0.014034","0.005323","0.057537"
"-0.018539","-0.001005","0.056034"
"-0.021564","-0.00025299999999999997","0.056033000000000006"
"-0.024585","0.004533","0.057675"
"-0.03897","0.001929","0.063802"
"-0.039457","-0.003833","0.064078"
"-0.032518","-0.007815","0.063614"
"-0.006648","-0.011367","0.064638"
"0.003264","-0.009535","0.06351799999999999"
"0.01526","0.000688","0.063837"
"0.025096","0.008409999999999999","0.060867"
"0.033705","0.004667","0.054122"
"0.042119","0.005442","0.046947"
"0.049263999999999995","0.009907","0.046105"
"0.048402999999999995","0.010225","0.043812000000000004"
"0.043851","0.015248","0.04127"
"0.032905000000000004","0.019024","0.047177"
"0.031983","0.017034999999999998","0.044531"
"0.027134","0.014273","0.044722000000000005"
"0.027239999999999997","0.016985","0.044622"
"0.026573000000000003","0.014833","0.049356"
"0.019599000000000002","0.010117000000000001","0.05462"
"0.015340000000000001","-0.00010400000000000001","0.059664999999999996"
"0.012235","-0.002537","0.06073099999999999"
"0.0051140000000000005","-0.004488000000000001","0.062491"
"0.000181","-0.002746","0.068625"
"-0.0034579999999999997","-0.0005679999999999999","0.071107"
"-0.010819","-0.0008550000000000001","0.077309"
"-0.012395999999999999","-0.0028179999999999998","0.07496699999999999"
"-0.002568","-0.004181","0.074724"
"-0.000794","0.005947","0.073149"
"-0.00602","0.001905","0.06583"
"-0.008898","-0.00108","0.06176"
"-0.014912","-0.002398","0.059787"
"-0.009904000000000001","-0.005693","0.062538"
"-0.004462","-0.005442","0.061314999999999995"
"0.000492","0.002829","0.05354400000000001"
"-0.013085","0.00145","0.052729"
"-0.020486","-0.003436","0.055153999999999995"
"-0.020494","-0.006179","0.05927"
"-0.017103999999999998","-0.009196","0.061241"
"-0.004192","-0.008674","0.064204"
"0.005372999999999999","0.000161","0.072528"
"0.006659999999999999","-0.005082","0.075169"
"0.020187","-0.008172","0.065536"
"0.032683","-0.006006","0.06893200000000001"
"0.044808","-0.007486","0.071242"
"0.055825","-0.000393","0.06718500000000001"
"0.064194","0.010681","0.068149"
"0.073048","0.018254","0.066528"
"0.07333300000000001","0.018237","0.065721"
"0.069914","0.018755","0.062786"
"0.06992899999999999","0.007927","0.057461"
"0.06564099999999999","0.005764","0.057334"
"0.069141","0.000843","0.056424"
"0.054973","-0.006285","0.040043"
"0.046754000000000004","-0.000493","0.042144"
"0.026849","-0.016419","0.040102"
"0.009502","-0.002722","0.057377"
"0.003507","-0.003544","0.060596000000000004"
"-0.01405","0.006451","0.060052"
"-0.065536","-0.009015","0.052702"
"-0.084399","-0.005325","0.041817"
"-0.130464","0.012166","0.047351"
"-0.140651","0.012655","0.041354"
"-0.149058","0.020624","0.042463"
"-0.15651600000000002","0.020743","0.030379000000000003"
"-0.157553","0.018139","0.029814999999999998"
"-0.15353","0.006421","0.046316"
"-0.146595","0.011218","0.060383000000000006"
"-0.136489","0.012124","0.061623000000000004"
"-0.104404","0.009956999999999999","0.056826"
"-0.060021000000000005","-0.002576","0.057353999999999995"
"-0.036713","-0.009173","0.064125"
"-0.028544999999999997","-0.009895000000000001","0.06750199999999999"
"-0.021527","-0.00509","0.069287"
"-0.029524","-0.004968","0.059087"
"-0.032415","-0.0061","0.058128"
"-0.033691000000000006","0.008154","0.050809"
"-0.030772000000000004","0.01201","0.047596"
"-0.03105","0.013406","0.04453"
"-0.021573","0.016967","0.033386"
"-0.018588","0.009187","0.031996"
"-0.014493","0.0028899999999999998","0.032838"
"-0.011936","0.009145","0.041632999999999996"
"-0.002081","0.00457","0.040702999999999996"
"0.007843000000000001","0.008342","0.039812"
"-0.015272999999999998","0.008173999999999999","0.049025"
"0.029043","0.012422","0.053042"
"0.010301000000000001","0.00044100000000000004","0.06527999999999999"
"0.004366","-0.011054999999999999","0.081118"
"-0.013786000000000001","-0.007298999999999999","0.09994600000000001"
"-0.018406","-0.005214","0.103247"
"-0.043162","-0.0028079999999999997","0.095898"
"-0.04166","-0.022109999999999998","0.08752"
"-0.024755000000000003","-0.018238","0.053011"
"0.018168","-0.008685","0.040635000000000004"
"0.054933","0.01281","0.036150999999999996"
"0.053199","0.0031579999999999998","0.044418"
"0.057711","0.007435","0.048586000000000004"
"0.06299400000000001","0.001703","0.038338"
"0.061665","0.005922","0.037214"
"0.060674","0.004586","0.035212"
"0.054393","0.006749","0.045511"
"0.050169","0.002783","0.054545"
"0.045209","0.00868","0.075072"
"0.037279","-0.0051979999999999995","0.085154"
"0.030416000000000002","-0.0027660000000000002","0.082995"
"0.021811","-0.012306999999999998","0.081835"
"0.02131","-0.004676","0.078912"
"0.012186","-0.003592","0.085029"
"0.010004","0.002031","0.08250299999999999"
"0.014996","0.005257","0.077074"
"0.027426","0.004209","0.067926"
"0.043233999999999995","0.007716","0.055072"
"0.048975","0.009006","0.049325"
"0.047227","0.004417","0.039726"
"0.027760000000000003","0.0033590000000000004","0.030123"
"0.019948","5.4000000000000005e-05","0.033067"
"-0.009481","-0.009195","0.069172"
"-0.040949","-0.008933","0.081816"
"-0.042503","0.005171","0.075154"
"-0.013980000000000001","0.021736000000000002","0.07316399999999999"
"-0.0050420000000000005","0.012624","0.082433"
"1.8e-05","0.000891","0.089516"
"0.0071189999999999995","-0.016427","0.088016"
"-0.007443000000000001","-0.014759999999999999","0.073349"
"-0.027049","-0.0026969999999999997","0.056623"
"-0.037857999999999996","0.002977","0.050589"
"-0.060291","0.010497","0.037835"
"-0.064832","0.016038","0.054047000000000005"
"-0.063444","0.019625","0.06516799999999999"
"-0.068901","0.003594","0.068374"
"-0.076221","-0.002942","0.060298000000000004"
"-0.08406","-0.00299","0.05795"
"-0.078144","0.00078","0.066044"
"-0.067537","0.005340999999999999","0.06851900000000001"
"-0.049292","0.00248","0.074849"
"-0.045525","-0.005411","0.05536"
"-0.03457","-0.0089","0.043549000000000004"
"-0.027235000000000002","-0.001052","0.045117000000000004"
"-0.029564","-0.000921","0.036913"
"-0.025112","0.006196","0.031722"
"-0.018025","0.015998","0.032892000000000005"
"-0.007509999999999999","0.015278","0.03875"
"-0.006552","0.018004","0.041645"
"-0.009247","0.011452","0.036274"
"-0.009332","0.006631000000000001","0.034045"
"-0.009563","0.003657","0.038779"
"-0.014336000000000002","0.002613","0.047414"
"-0.004622","0.006509999999999999","0.051043"
"-0.00109","0.009375","0.05164"
"-0.000234","0.0037909999999999997","0.056176"
"-0.004772","-0.007023000000000001","0.065201"
"-0.002779","0.002023","0.070087"
"-0.006711","0.007117","0.073015"
"-0.009531","0.0008810000000000001","0.069926"
"-0.00626","0.000752","0.080217"
"-0.002933","-0.0056","0.078098"
"0.0028829999999999997","-0.00563","0.076484"
"0.017522","-0.006171","0.078936"
"0.021894999999999998","-0.007803","0.07082999999999999"
"0.035376","0.00031099999999999997","0.065669"
"0.040913","-9.8e-05","0.063983"
"0.024935","-0.00044400000000000006","0.055577"
"0.029841000000000003","0.005094","0.050556"
"0.03429","-0.00013000000000000002","0.052080999999999995"
"0.033755","-0.004664","0.050720999999999995"
"0.020789","-0.016293000000000002","0.045377999999999995"
"0.002833","0.002539","0.051505999999999996"
"-0.001198","0.006302","0.040491"
"-0.000521","0.020572","0.034331"
"0.00545","0.028702","0.024394"
"0.005801","0.030513","0.011714"
"-0.024848","0.009112","0.010343000000000001"
"-0.025695","-0.000328","0.027679000000000002"
"-0.025089","0.002647","0.045896"
"-0.024446000000000002","-0.001036","0.053024"
"-0.008208","0.0032450000000000005","0.057449"
"0.0008550000000000001","-0.006389","0.058511"
"-0.000407","-0.0031","0.063963"
"0.001134","-0.003706","0.066833"
"0.000984","-0.008235","0.061855999999999994"
"0.006336","-0.003766","0.057864"
"0.003394","0.003975","0.054012"
"0.002649","0.004229","0.049615"
"0.003311","-0.0008820000000000001","0.051359"
"0.00607","0.004202","0.048060000000000005"
"0.005592","0.010416","0.050276999999999995"
"0.0023989999999999997","0.008912999999999999","0.050621"
"0.00603","0.0049689999999999995","0.054972"
"0.003917","0.009","0.051664"
"-0.000145","0.000335","0.055672"
"0.000277","-0.002326","0.057710000000000004"
"-0.000768","-0.000196","0.055174"
"7.000000000000001e-06","0.003266","0.050727"
"-0.00158","0.0017989999999999998","0.053075"
"-0.002085","0.00172","0.052601999999999996"
"-0.0008230000000000001","0.006712","0.055227"
"-0.0030210000000000002","0.008648000000000001","0.062439999999999996"
"-0.007162000000000001","0.004618","0.064086"
"-0.014754","-0.00165","0.062088"
"-0.020974","-0.005744","0.060423000000000004"
"-0.020727000000000002","-0.00878","0.062289"
"-0.020743","-0.011328","0.062079999999999996"
"-0.015287","-0.002367","0.064444"
"-0.018505","0.003865","0.062081"
"-0.010782","0.002634","0.055713"
"-0.008152","0.004463","0.051887"
"-0.004992","0.004037","0.048714"
"0.009601","0.006294","0.050831"
"0.008262","0.0054399999999999995","0.056586000000000004"
"0.005014","0.002407","0.05529"
"0.0034130000000000002","0.0029690000000000003","0.059896000000000005"
"0.0017699999999999999","0.001882","0.063691"
"-0.007069","0.002964","0.07808899999999999"
"-0.008834999999999999","-0.0015789999999999999","0.083125"
"-0.00855","-0.001533","0.08348799999999999"
"0.004427","0.000256","0.080286"
"0.006703","0.005107","0.076913"
"0.006511","0.009198999999999999","0.080428"
"0.005682","0.0032840000000000005","0.080193"
"0.003275","0.006702","0.074076"
"-0.00732","0.007825","0.070381"
"-0.022108000000000003","-0.0009570000000000001","0.063251"
"-0.024730000000000002","-0.000528","0.059620000000000006"
"-0.027062","-0.002572","0.059723000000000005"
"-0.023219999999999998","0.003518","0.054951"
"-0.019565","0.0068200000000000005","0.049510000000000005"
"-0.017523","0.012206","0.048404"
"-0.017449","0.006653","0.045635"
"-0.016729","0.002724","0.049079000000000005"
"-0.016311000000000003","-0.004314","0.053535"
"-0.017057","-0.006963","0.058235"
"-0.014303999999999999","-0.012341","0.05522899999999999"
"-0.014735","-0.013831999999999999","0.05725499999999999"
"-0.009341","-0.008721","0.054984000000000005"
"-0.006651000000000001","-0.009524","0.063375"
"-0.006806","-0.010057","0.066702"
"-0.0077","-0.012424","0.068194"
"-0.009123000000000001","-0.0009550000000000001","0.064573"
"-0.012941","0.0037890000000000003","0.069194"
"-0.009109","0.009461","0.068495"
"-0.003922","0.013933000000000001","0.080737"
"0.001058","0.021830000000000002","0.089347"
"0.00075","0.022915","0.090048"
"-0.003321","0.014358000000000001","0.081013"
"-0.017568","0.0038929999999999998","0.06866699999999999"
"-0.020063","-0.002997","0.071296"
"-0.023334","-0.018966999999999998","0.057489"
"-0.018722","-0.013092","0.05463"
"-0.015629","-0.009037","0.051055"
"-0.012941999999999999","0.006915999999999999","0.038403"
"-0.014556","0.020055","0.03626"
"-0.010811","0.0179","0.036364999999999995"
"-0.016272","0.01142","0.047961000000000004"
"-0.012855000000000002","0.002207","0.056157000000000006"
"-0.009729","-0.011623","0.058946000000000005"
"0.034874","-0.009774","0.036215"
"0.053229","-0.005733","0.026317"
"0.068569","0.000286","0.019747"
"0.0759","0.021696","0.022515"
"0.072265","0.024716","0.016759"
"0.067075","0.013393","0.015958"
"0.07372000000000001","0.024584","0.006806"
"0.056528999999999996","0.020687999999999998","0.003933"
"0.04287","0.01289","0.001372"
"0.041631","0.014171000000000001","-0.004035"
"0.032605","0.006876","-0.001547"
"0.032327","0.0056159999999999995","0.006640000000000001"
"0.035532999999999995","0.005982","0.022701"
"0.030125","0.002153","0.038994"
"0.008764","-0.0037630000000000003","0.051823"
"-0.018355","-0.021113","0.064998"
"-0.020963","0.004405","0.061939999999999995"
"-0.026256","0.005229999999999999","0.057522000000000004"
"-0.05313300000000001","-0.006266","0.045982"
"-0.061161","-0.006808","0.053467999999999995"
"-0.062614","-0.000103","0.058177"
"-0.074427","-0.002591","0.066084"
"-0.07973200000000001","-0.005520000000000001","0.094179"
"-0.07982","-0.000122","0.097873"
"-0.080176","-0.0026219999999999998","0.118986"
"-0.075289","-0.000674","0.11166199999999998"
"-0.063104","0.000814","0.09553500000000001"
"-0.05351","0.004453","0.07799199999999999"
"-0.04655","-0.008356","0.08092200000000001"
"-0.038018","-0.006934999999999999","0.083631"
"-0.026601","-0.000731","0.079964"
"-0.016771","0.002611","0.074064"
"-0.014119999999999999","0.003646","0.066102"
"-0.009717","0.007114","0.050172"
"-0.017985","0.010454000000000001","0.047264999999999995"
"-0.020847","0.006403","0.046539"
"-0.019753","-0.003803","0.048556"
"-0.012559","-0.007106","0.045477"
"-0.0023539999999999998","0.0019149999999999998","0.046563"
"-0.010607","0.0071519999999999995","0.052976999999999996"
"-0.018659000000000002","0.0044399999999999995","0.06211900000000001"
"-0.027332","-0.002758","0.079201"
"-0.029743000000000002","-0.012240000000000001","0.101088"
"-0.035394999999999996","-0.002786","0.108123"
"-0.037723","-0.001535","0.1127"
"-0.028405","0.0047020000000000005","0.095663"
"0.00031800000000000003","0.0028539999999999998","0.076706"
"0.031863","0.005608","0.063474"
"0.038221","0.003213","0.055625"
"0.040055","-0.00561","0.053992"
"0.049589","-0.002484","0.043644999999999996"
"0.052427999999999995","-0.002802","0.035889"
"0.057441","-0.001591","0.033320999999999996"
"0.05834500000000001","0.002497","0.031320999999999995"
"0.061823","0.005425999999999999","0.025519999999999998"
"0.048118","0.0037979999999999997","0.031945"
"0.03754","0.000356","0.045471"
"0.024718","0.0036780000000000003","0.058948"
"0.015412","0.009351","0.070773"
"0.008536","0.001553","0.06954"
"0.010159","-0.008159","0.069227"
"0.0043","-0.004765999999999999","0.07123600000000001"
"-0.008737","-0.011765000000000001","0.07886"
"-0.029310000000000003","-0.006998000000000001","0.091798"
"-0.039367","-0.001268","0.09221499999999999"
"-0.054377999999999996","0.0049299999999999995","0.093599"
"-0.080881","0.008097","0.095023"
"-0.07684500000000001","-0.001019","0.108502"
"-0.077163","-0.00103","0.109003"
"-0.056535","-0.009581999999999999","0.094149"
"-0.051802","-0.010263","0.091937"
"-0.027066000000000003","-0.002432","0.078473"
"0.006594","0.00715","0.056407000000000006"
"0.025894","0.012348","0.036567"
"0.036643","0.019725","0.02582"
"0.035583","0.022074","0.030585"
"0.029233999999999996","-0.001215","0.040935"
"0.019676","-0.01577","0.052779"
"0.014878","-0.020554","0.06455"
"0.011816","-0.030943000000000002","0.07722000000000001"
"0.014353","-0.029774000000000002","0.078926"
"0.017176","-0.01617","0.077429"
"-0.0019140000000000001","-0.008176000000000001","0.070451"
"-0.009420999999999999","-0.0017100000000000001","0.065584"
"-0.021897","0.010192","0.06325599999999999"
"-0.026318","0.02228","0.07281699999999999"
"-0.025720999999999997","0.022987","0.075103"
"-0.022105","0.026536","0.079358"
"-0.013678000000000001","0.008081","0.078514"
"-0.013565","0.007527","0.083566"
"-0.011525","-0.002839","0.081147"
"-0.012367","0.0009199999999999999","0.081032"
"-0.006664","-0.007861","0.073259"
"-0.002129","-0.007451","0.059351999999999995"
"-0.0017620000000000001","-0.004586","0.053952"
"-0.006895","0.001544","0.045482"
"0.005767","0.005166","0.042081"
"0.005956","0.006934999999999999","0.040611"
"0.010109","0.008489","0.044737"
"0.012006999999999999","0.005220000000000001","0.048826999999999995"
"0.015962999999999998","0.003257","0.048833"
"0.019462","0.005527000000000001","0.050991"
"0.021564","-0.002358","0.057662"
"0.020533000000000003","-0.002438","0.058347"
"0.014877000000000001","-0.0015140000000000002","0.056146"
"0.013249","-0.002221","0.056353"
"0.006074","-0.00039","0.053066999999999996"
"0.005521","0.0016640000000000001","0.050874"
"-0.005797999999999999","0.004481000000000001","0.052305"
"-0.011965","-0.002361","0.055598"
"-0.015758","0.0017280000000000002","0.05937100000000001"
"-0.019542","0.002911","0.057847"
"-0.018088","0.004305","0.059961"
"-0.019133","0.003171","0.05834299999999999"
"-0.012020999999999999","0.005107","0.058937"
"-0.011526","-0.002576","0.062472"
"-0.011344","-0.002532","0.063079"
"-0.005668","-0.002644","0.061386"
"-0.011884","-0.0016469999999999998","0.063944"
"-0.011114","0.000375","0.06596"
"-0.00824","0.002459","0.069029"
"-0.012487999999999999","0.006693999999999999","0.06893300000000001"
"-0.021481","0.00995","0.064525"
"-0.029508999999999997","-0.0037409999999999995","0.058391"
"-0.024499","-0.0032670000000000004","0.051524"
"-0.013347999999999999","0.0038740000000000003","0.051641"
"-0.0018739999999999998","0.000808","0.051761"
"0.013634","0.002408","0.048612"
"0.023400999999999998","0.0026449999999999998","0.038296"
"0.018423","0.017224","0.045991000000000004"
"0.004442","0.0054210000000000005","0.056071"
"-0.002245","-0.006973999999999999","0.061197"
"-0.001605","-0.014722","0.06874"
"-0.005437","-0.003832","0.076734"
"-0.018774000000000002","-0.000524","0.078691"
"-0.043309","-0.011124","0.074912"
"-0.044104000000000004","-0.016003","0.07824400000000001"
"-0.042201999999999996","-0.017237","0.088904"
"-0.033178","0.00035099999999999997","0.09345099999999999"
"-0.030883999999999998","0.005602","0.082722"
"-0.02864","0.013224000000000001","0.06307"
"-0.031777","0.015727","0.051330999999999995"
"-0.031914","0.013977000000000002","0.053939"
"-0.028758","0.01257","0.059551"
"-0.022823","0.006025","0.058728999999999996"
"-0.021108000000000002","0.004705","0.059868"
"-0.028412","0.000145","0.061051999999999995"
"-0.034191","0.00361","0.07169299999999999"
"-0.030048000000000002","0.000556","0.087572"
"-0.025246","-0.006065999999999999","0.09361599999999999"
"-0.01602","-0.007978","0.09283200000000001"
"-0.014247999999999999","0.009224","0.06468600000000001"
"0.002587","-0.017672","0.055272"
"-0.0056","-0.016635","0.051944000000000004"
"0.004016","-0.006603","0.054439999999999995"
"0.037388","0.0008470000000000001","0.049786000000000004"
"0.055938999999999996","0.0052899999999999996","0.042162"
"0.048779","0.007692","0.030618"
"0.052101999999999996","0.011684","0.034243"
"0.04349","0.015709","0.039914"
"0.03499","0.012943999999999999","0.034114"
"0.025523","0.013722999999999999","0.028974"
"0.019891","0.013553999999999998","0.027438"
"0.017748","0.013951","0.028481"
"0.007301","0.009526","0.036459"
"0.000592","0.007373","0.044208"
"0.006487000000000001","0.00331","0.055608000000000005"
"0.009396999999999999","-0.0035310000000000003","0.054034000000000006"
"0.021234","-0.001823","0.056053"
"0.020935","0.0034869999999999996","0.053474"
"0.018962","0.0066760000000000005","0.054012"
"0.016537","0.006173","0.058355"
"0.016097","0.000737","0.059021000000000004"
"0.011648","-0.000125","0.063181"
"0.0020039999999999997","-0.00093","0.064627"
"-0.008937","-0.000308","0.0654"
"-0.016858","0.0012369999999999998","0.066197"
"-0.020257","0.004622","0.068978"
"-0.013416999999999998","0.006527","0.066234"
"-0.010024","0.007784999999999999","0.060084000000000005"
"0.0033659999999999996","0.009304999999999999","0.052990999999999996"
"0.008574","0.0049310000000000005","0.050608"
"0.017346","0.006129","0.045"
"0.025293","0.006840000000000001","0.035564"
"0.019324","0.006426","0.037114"
"0.013115","0.0060030000000000005","0.041425"
"0.018113","0.007833","0.048575"
"0.031751999999999996","0.008875","0.065583"
"0.029018000000000002","-0.0035399999999999997","0.05969"
"0.016393","-0.010422","0.054826"
"0.003339","-3.3e-05","0.060367"
"-0.004366","-0.000147","0.061288999999999996"
"-0.009767","0.015373","0.063707"
"-0.006337","0.011497","0.062725"
"-0.001227","0.009931","0.064496"
"-0.010586","-0.000831","0.060788999999999996"
"-0.030351","-0.002388","0.06176"
"-0.040684","-0.006301","0.066107"
"-0.045837","0.0033179999999999998","0.095701"
"-0.033938","0.017971","0.112581"
"-0.024705","0.001428","0.114304"
"-0.010306999999999998","-0.008401","0.102474"
"-0.005979","-0.01165","0.101691"
"-0.010856999999999999","-0.010343999999999999","0.101417"
"-0.022719","-0.011341","0.08809299999999999"
"-0.016502","-0.008325","0.079331"
"-0.012159","-0.004174000000000001","0.070204"
"-0.010844","0.008222","0.064215"
"-0.014400999999999999","0.016461","0.058084000000000004"
"-0.015881","0.007831","0.059786"
"-0.009581000000000001","0.001111","0.061011"
"-0.009868","-0.000215","0.059628"
"-0.013883000000000001","0.0061600000000000005","0.059210000000000006"
"-0.013216","0.008033","0.058232000000000006"
"-0.007906","0.000729","0.052149"
"0.003732","8.7e-05","0.053318"
"0.002698","0.002215","0.056682"
"0.006639","0.001661","0.05968"
"0.003636","0.000314","0.064581"
"-0.005832","-0.000778","0.06269"
"0.000538","0.00016999999999999999","0.062855"
"0.000379","-0.004572","0.05934400000000001"
"-0.006906999999999999","0.0030629999999999998","0.058302"
"-0.009415999999999999","0.003982","0.059761"
"-0.010348","0.003089","0.06569900000000001"
"-0.007386","0.000776","0.06711900000000001"
"-0.007618000000000001","0.0016539999999999999","0.06621"
"-0.008184","0.003461","0.069191"
"-0.010967","0.0042369999999999994","0.07089"
"-0.010772","0.0017879999999999999","0.07154400000000001"
"-0.014521000000000001","0.005998","0.068313"
"-0.001144","0.0028","0.066478"
"-0.0045780000000000005","-0.003285","0.06666799999999999"
"-0.0038950000000000005","-0.004943","0.06500800000000001"
"-0.003796","-0.002363","0.069642"
"-0.001374","0.0038770000000000002","0.070204"
"-0.003221","0.019144","0.077534"
"0.001586","0.0121","0.077841"
"0.0028940000000000003","-0.001433","0.086153"
"0.004321","-0.006142","0.090678"
"0.011479000000000001","-0.018423","0.085607"
"0.015912","-0.013327","0.077498"
"0.015106","-0.008993000000000001","0.074741"
"0.013859999999999999","0.005162","0.057284"
"-0.004181","0.009226999999999999","0.049111"
"-0.004039","0.009198999999999999","0.047958"
"-0.009931","0.0036409999999999997","0.042093"
"-0.009826999999999999","0.000992","0.044864999999999995"
"-0.012959","0.008128","0.05417"
"-0.01314","0.006581","0.060943"
"-0.016738","0.0018149999999999998","0.072755"
"-0.015069999999999998","0.0048530000000000005","0.078762"
"-0.020565","0.003353","0.081942"
"-0.019009","-0.007217","0.077514"
"-0.006909","-0.009467","0.074407"
"0.003819","-0.005895","0.067329"
"0.010033","-0.002333","0.061893"
"0.013194999999999998","0.00514","0.058411000000000005"
"0.008184","0.006737000000000001","0.057588"
"-0.005542","0.003017","0.059627"
"-0.006258","0.002204","0.058277999999999996"
"-0.003133","-0.003003","0.06762"
"-0.001224","-0.00517","0.070659"
"0.0008470000000000001","-0.001486","0.06971000000000001"
"-0.002059","0.00461","0.067271"
"-0.005446","0.002885","0.069428"
"-0.0038009999999999997","0.001239","0.069274"
"-0.0022949999999999997","-0.001038","0.070488"
"-0.004448","0.0005639999999999999","0.07101299999999999"
"-0.009229000000000001","0.0034479999999999997","0.066175"
"-0.01158","0.000676","0.066436"
"-0.008383","-0.004503","0.069985"
"-0.005888","-0.010634000000000001","0.074861"
"-0.0017350000000000002","-0.008684","0.070911"
"-0.004288","-0.006684999999999999","0.064594"
"-0.00315","0.004178","0.058192999999999995"
"-0.006689","0.005336","0.05732"
"-0.001866","0.00182","0.054991"
"0.003254","-0.001363","0.054202"
"0.0018579999999999998","0.002792","0.06451"
"-0.0036950000000000004","0.004275","0.066871"
"-0.013428","-0.006458","0.074714"
"-0.027504","-0.0071129999999999995","0.086482"
"-0.021633000000000003","-0.004281","0.081996"
"-0.024978999999999998","-0.007431","0.090191"
"-0.023423","-0.003776","0.088187"
"-0.024919","-0.001738","0.088136"
"-0.016229","-0.0032869999999999996","0.083595"
"-0.021843","0.003346","0.08394299999999999"
"-0.013165999999999999","0.000691","0.079233"
"-0.01355","0.004618","0.077555"
"-0.009217","0.005121","0.07993"
"-0.0029620000000000002","0.004081","0.07499600000000001"
"0.000584","0.0033049999999999998","0.064833"
"0.005797999999999999","0.000589","0.060776"
"0.006235","-0.00085","0.057682000000000004"
"0.005929","-0.003213","0.055510000000000004"
"0.003708","-0.003737","0.059726999999999995"
"-0.001713","-0.0008359999999999999","0.067286"
"0.00164","-0.000421","0.06944299999999999"
"0.0016179999999999999","0.001151","0.06839400000000001"
"-0.001009","-0.0027129999999999997","0.067817"
"0.00045999999999999996","0.000614","0.070976"
"-0.001634","-0.001363","0.06649400000000001"
"-0.003737","0.004032","0.06640900000000001"
"0.0014470000000000002","-0.003781","0.064327"
"-0.003418","0.000504","0.06211900000000001"
"-0.007644","0.009049","0.062371"
"-0.006056000000000001","0.004825","0.062786"
"-0.0052049999999999996","0.003303","0.065197"
"-0.000828","0.008163","0.059039999999999995"
"-0.0018629999999999999","-0.002971","0.064937"
"0.009892","-0.004911","0.069836"
"0.006603","-0.005458","0.060295"
"0.000436","0.0026449999999999998","0.056774"
"0.001109","0.003686","0.057876"
"0.0009609999999999999","0.0016","0.055577"
"-0.004914","0.0006349999999999999","0.059491999999999996"
"-0.006770999999999999","0.000266","0.066957"
"-0.006139","0.000337","0.06808099999999999"
"-0.003953","-0.0035600000000000002","0.072448"
"-0.013104","-0.016583","0.08036"
"-0.014279","-0.010088","0.090089"
"-0.011198","-0.0066159999999999995","0.08909600000000001"
"-0.015073","-0.004232","0.093382"
"-0.008676999999999999","-0.0042899999999999995","0.10116699999999999"
"0.002669","-0.009284","0.103176"
"0.010617","0.028423","0.081854"
"0.002398","0.0277","0.060795"
"-0.0352","0.007935","0.020121"
"-0.021991999999999998","-0.025596999999999998","0.085123"
"0.006539","-0.0032990000000000003","0.09900199999999999"
"0.017862","0.012969999999999999","0.085997"
"0.015128999999999998","0.034695","0.029907999999999997"
"0.002845","0.02343","0.029522000000000003"
"-0.0021620000000000003","0.00435","0.05655399999999999"
"0.002084","-0.00757","0.087137"
"0.006405","-0.009425","0.084607"
"0.012059","-0.013033000000000001","0.07194199999999999"
"0.002816","-0.001818","0.07282899999999999"
"0.00147","0.0015429999999999999","0.077075"
"-0.004628","-0.002798","0.073351"
"0.005522","0.003127","0.069405"
"0.005259000000000001","0.002164","0.064943"
"0.004529","0.005944","0.062123000000000005"
"-0.005005","0.005458","0.065843"
"-0.005256","0.004845","0.068997"
"-0.0013449999999999998","0.0033079999999999997","0.070994"
"-0.001263","0.00032","0.067256"
"-0.003529","0.000207","0.06218099999999999"
"-0.007868","0.000262","0.062885"
"-0.009922","-0.000851","0.06774"
"-0.008494","-0.001757","0.07799400000000001"
"-0.006162","0.002576","0.080316"
"-0.005051","0.000668","0.07374299999999999"
"-0.0020440000000000002","0.004722","0.072703"
"-0.004633","0.000306","0.071546"
"-0.005241","-0.0028710000000000003","0.07271"
"-0.0012289999999999998","-0.001629","0.069625"
"-0.000676","-0.001553","0.069975"
"-0.005847","-0.001478","0.067672"
"-0.008524","-0.001241","0.067781"
"-0.014191","0.009172","0.063066"
"-0.016124","0.0071920000000000005","0.059987"
"-0.015083000000000001","0.004328","0.05695599999999999"
"-0.013511000000000002","0.007098","0.05374400000000001"
"-0.017837000000000002","0.007961","0.054716999999999995"
"-0.016907","-0.000184","0.05385"
"-0.013593000000000001","0.004082","0.054653999999999994"
"-0.014641","0.002101","0.057679999999999995"
"-0.01199","0.0017929999999999999","0.063053"
"-0.011683","0.0037","0.060772"
"-0.011179000000000001","0.00466","0.05984299999999999"
"-0.015034","0.0041979999999999995","0.060662"
"-0.009965","0.0033159999999999995","0.066925"
"-0.005895","0.002501","0.064577"
"-0.005028","0.003654","0.064966"
"-0.004006","0.000396","0.062966"
"-0.002306","0.002003","0.061238"
"-0.00037","0.004006","0.060738"
"-0.000684","0.001625","0.059824"
"0.002738","0.001347","0.06321399999999999"
"0.004251","0.002584","0.06207000000000001"
"0.0008710000000000001","0.002293","0.06515499999999999"
"0.005241","0.001779","0.06374500000000001"
"0.004582999999999999","0.002827","0.062484000000000005"
"0.006157999999999999","0.002434","0.064652"
"0.009053","0.0009630000000000001","0.069423"
"0.009856","0.000541","0.069467"
"0.008284999999999999","0.0013160000000000001","0.068099"
"0.006354","0.000571","0.066582"
"0.002984","0.004011","0.06241699999999999"
"0.003154","0.0030239999999999998","0.061752"
"0.002132","0.002821","0.061377999999999995"
"0.004883","0.004177","0.062628"
"0.0033740000000000003","0.002242","0.06736900000000001"
"0.000603","0.00458","0.068242"
"0.000629","0.0037159999999999997","0.068494"
"-0.004389","0.002507","0.066188"
"0.0011769999999999999","0.00049","0.06373"
"6e-06","0.001033","0.064801"
"-0.004493","0.0019329999999999998","0.06490800000000001"
"-0.008338","0.003539","0.065622"
"-0.008320000000000001","0.004527000000000001","0.06518"
"-0.0068790000000000006","0.001178","0.07403"
"-0.00705","-0.0038079999999999998","0.076421"
"-0.001503","-0.000213","0.078513"
"-0.003539","-0.000698","0.079862"
"-0.005722","-0.0039030000000000002","0.076806"
"-0.00606","-0.001","0.086926"
"-0.00743","-0.0040420000000000005","0.084841"
"-0.008688","-0.0033759999999999997","0.07209700000000001"
"-0.009082","0.0010890000000000001","0.061304"
"-0.010481","0.004658","0.055976"
"-0.014740999999999999","0.012376999999999999","0.042413"
"-0.017628","0.015352000000000001","0.034537"
"-0.019499000000000002","0.014383000000000002","0.036483"
"-0.020856","0.01267","0.03718"
"-0.015522","0.016013999999999997","0.039656"
"-0.011361","0.014325999999999998","0.041616"
"-0.005446","0.005241","0.049461"
"0.000171","0.00584","0.054463"
"0.010581","0.003082","0.055599"
"0.016176","0.00185","0.056872000000000006"
"0.016666999999999998","0.001648","0.060601"
"0.01292","-0.001771","0.069645"
"0.01617","-0.001231","0.077318"
"0.01199","0.002141","0.085672"
"0.0017739999999999998","-0.000213","0.08913"
"0.003159","-0.009934","0.065137"
"0.003635","-0.008306000000000001","0.09175900000000001"
"0.014669","-0.007253","0.090265"
"-0.0012230000000000001","-0.004328","0.080752"
"-0.00043200000000000004","0.0069299999999999995","0.073931"
"-0.012653","0.009757","0.077428"
"-0.016284","0.009347","0.069944"
"-0.016016","0.008653000000000001","0.06402999999999999"
"-0.021224","0.008336","0.038814"
"-0.020669","-0.000575","0.040284"
"-0.016926","-0.005576","0.054938"
"-0.009873999999999999","-0.010865999999999999","0.06966"
"-0.006077","-0.009755","0.076963"
"-0.008887","-0.004227000000000001","0.07897"
"-0.010384000000000001","0.001046","0.07193300000000001"
"-0.014431","0.0032479999999999996","0.064452"
"-0.007783","0.007104999999999999","0.05461"
"-0.005727","0.006789","0.053459000000000007"
"-0.0017690000000000002","0.004743","0.054465"
"-0.002904","0.005779","0.060943"
"0.000328","0.003858","0.060773"
"0.009696999999999999","0.0012519999999999999","0.060672000000000004"
"0.017322999999999998","0.00024900000000000004","0.063099"
"0.025774000000000002","0.004628","0.06501799999999999"
"0.031256","0.006817","0.062598"
"0.029391000000000004","0.010763","0.061433"
"0.030117","0.00983","0.059144"
"0.026660000000000003","0.0058920000000000005","0.059888"
"0.017075999999999997","-0.003917","0.06027999999999999"
"0.015819","0.021258000000000003","0.047501999999999996"
"0.004164","-0.0259","0.059838999999999996"
"0.023599000000000002","0.000867","0.072158"
"0.005224","0.003781","0.073699"
"-0.011308","0.005647","0.059365999999999995"
"-0.010551999999999999","0.002501","0.058584000000000004"
"-0.015315","7e-05","0.061546000000000003"
"-0.019434","-0.0012640000000000001","0.061186000000000004"
"-0.021057","-0.0006889999999999999","0.054395000000000006"
"-0.023652","0.001547","0.04545"
"-0.030642000000000003","0.006719","0.047975"
"-0.033839","0.006725","0.050134"
"-0.030437","0.004374","0.051962"
"-0.027787","0.004494","0.052074"
"-0.030633999999999998","0.002799","0.050686"
"-0.033799","0.007056000000000001","0.051031"
"-0.032666","0.0066040000000000005","0.055980999999999996"
"-0.030101999999999997","0.008098000000000001","0.062466999999999995"
"-0.029081","0.006371","0.063566"
"-0.030669","0.007137","0.060153"
"-0.029952","0.006640000000000001","0.060439"
"-0.024148","0.008792","0.068085"
"-0.029483999999999996","0.004547","0.075228"
"-0.028075","0.0019420000000000001","0.080265"
"-0.024465999999999998","-0.00031800000000000003","0.078925"
"-0.023962","-0.001572","0.072952"
"-0.025869999999999997","-0.004131","0.075026"
"-0.025089","-0.003439","0.072712"
"-0.02309","-0.00040199999999999996","0.072309"
"-0.020957","0.0035020000000000003","0.067289"
"-0.02171","0.001341","0.062292999999999994"
"-0.022681","0.002433","0.058375"
"-0.016437","-0.003894","0.06312899999999999"
"-0.016179","-0.003972","0.061809"
"-0.012029999999999999","-0.0067209999999999995","0.076772"
"-0.013290999999999999","0.0030989999999999998","0.071413"
"-0.011468","0.014265","0.06562899999999999"
"-0.016378","0.010587000000000001","0.062722"
"-0.016038999999999998","0.003947","0.06666"
"-0.014727","0.004369","0.068159"
"-0.015409","0.001552","0.068425"
"-0.014484","-7.8e-05","0.064426"
"-0.019107","0.006218","0.064983"
"-0.031689999999999996","0.000101","0.06816599999999999"
"-0.041841","-0.0036799999999999997","0.075654"
"-0.052152","-0.006365999999999999","0.083487"
"-0.063011","-0.010471","0.084527"
"-0.063234","-0.001058","0.079295"
"-0.04122","0.014534","0.057822000000000005"
"0.00972","0.018088","0.021422"
"0.025561","0.010946","0.013881999999999999"
"0.05312000000000001","0.001419","0.014128"
"0.07134700000000001","-0.001875","0.01042"
"0.071392","-0.004414","0.011392"
"0.060761","-0.001217","0.007803"
"0.052302","0.006934","0.004586"
"0.04455","0.004046","0.012409"
"0.039863","-0.002598","0.018596"
"0.033582","-0.003445","0.032448000000000005"
"0.028199000000000002","0.002101","0.040888"
"0.023358","0.005415","0.050806"
"0.018068","0.012378","0.056994"
"-0.013778","0.024347","0.08218400000000001"
"-0.023684999999999998","0.013673","0.088492"
"-0.053144000000000004","0.007776000000000001","0.097683"
"-0.066365","-0.000773","0.10373399999999999"
"-0.071937","-0.004071","0.105584"
"-0.063519","-0.006379","0.101613"
"-0.04489","-0.00162","0.08905700000000001"
"-0.021991999999999998","-5.9e-05","0.072501"
"-0.0017329999999999997","0.0042829999999999995","0.059774"
"0.015401","0.0019079999999999998","0.051985"
"0.031122000000000004","-0.002054","0.046125"
"0.037387000000000004","-0.004408","0.038135"
"0.039527","0.004419","0.030269"
"0.034819","0.014593","0.027473"
"0.026831999999999998","0.008168","0.029036000000000003"
"0.017235","-0.006226","0.038732"
"0.013347","-0.007091","0.0421"
"0.013084","-0.004177","0.045516"
"0.011851","0.013951","0.038883"
"0.009193999999999999","0.010159","0.038686"
"0.006876999999999999","0.0075239999999999994","0.038681"
"0.002121","0.003857","0.050268"
"-0.0009140000000000001","0.0019079999999999998","0.052765"
"-0.007802","-0.003068","0.050876"
"-0.008039","0.001228","0.047089"
"-0.02214","0.001538","0.043372"
"-0.027363","-0.003679","0.046909"
"-0.043713999999999996","-0.003489","0.063173"
"-0.047658","-0.005137","0.063933"
"-0.04816","0.002014","0.06455"
"-0.049227999999999994","0.014750999999999998","0.052993"
"-0.048783","0.01006","0.048732"
"-0.040648000000000004","-0.001","0.048059"
"-0.036009","0.00014099999999999998","0.050469"
"-0.024582","0.006551","0.046431"
"-0.01026","0.00946","0.030982"
"-0.0019260000000000002","0.007475","0.024507"
"0.001207","0.0039689999999999994","0.025917000000000003"
"-0.0079","-0.0020109999999999998","0.040296"
"-0.013666999999999999","-0.009618999999999999","0.055373"
"-0.016406999999999998","-0.012896000000000001","0.061664"
"-0.036307","-0.007109000000000001","0.068498"
"-0.039633999999999996","-0.00016299999999999998","0.065247"
"-0.045661","0.002182","0.062362"
"-0.040155","0.008242","0.06452999999999999"
"-0.026557","0.001872","0.071849"
"-0.014343","0.0033740000000000003","0.071618"
"-0.009035","0.000223","0.06991699999999999"
"-0.004340999999999999","-0.00134","0.061637"
"0.0033840000000000003","0.0059960000000000005","0.054375"
"0.004194","0.009639","0.050227"
"0.012457","0.010069","0.042259"
"0.020722","0.0020329999999999997","0.037861"
"0.025333","-0.004895","0.029894999999999998"
"0.025238","-0.003915999999999999","0.026685000000000004"
"0.009945","0.000337","0.030472000000000003"
"-0.019903999999999998","-9.9e-05","0.04356"
"-0.043735","0.0010220000000000001","0.053191999999999996"
"-0.050611","0.002062","0.055067"
"-0.045545","0.0048189999999999995","0.058875"
"-0.050606","0.0037270000000000003","0.063804"
"-0.046755","0.003075","0.069617"
"-0.039798","0.001611","0.073888"
"-0.011427","-0.004603","0.08655299999999999"
"-0.00575","-0.0018510000000000002","0.082402"
"-0.0007769999999999999","0.002084","0.079941"
"0.008873","0.00838","0.053866"
"0.009699","0.0038439999999999998","0.050683"
"0.014565","-0.002136","0.046359"
"0.015293000000000001","-0.016883000000000002","0.040757999999999996"
"0.024784999999999998","-0.008314","0.047007"
"0.026188","-0.008706","0.05414"
"-0.017952000000000003","0.010984","0.05179500000000001"
"-0.027769","0.012291","0.045085"
"-0.037426","0.010887","0.042101"
"-0.043706","-0.0017219999999999998","0.043680000000000004"
"-0.033772","0.00318","0.052925"
"-0.021865","0.005981","0.062077999999999994"
"-0.016631","0.005608","0.066428"
"-0.022992","0.003525","0.062310000000000004"
"-0.022513","0.017051","0.062795"
"-0.017927000000000002","0.006802","0.057785"
"-0.016581","0.001276","0.057427"
"-0.017152","0.000517","0.062575"
"-0.027572000000000003","0.002072","0.061116"
"-0.032175","0.00173","0.063092"
"-0.037467","-0.004185","0.058238"
"-0.033093","-0.003246","0.050638"
"-0.029386000000000002","-0.001934","0.049356"
"-0.018902000000000002","0.0005679999999999999","0.040205"
"-0.009512999999999999","-9.8e-05","0.030914999999999998"
"0.001696","0.007247","0.030649000000000003"
"0.011111","0.002663","0.027155000000000002"
"0.012046","-0.0018960000000000001","0.028329000000000003"
"0.018926","0.000102","0.013813999999999998"
"0.030704000000000002","-0.010296","0.022940000000000002"
"0.031708999999999994","-0.009031","0.022715"
"0.036433999999999994","-0.002738","0.019167"
"0.040186","0.010194","0.014062"
"0.031355","0.013984","0.012907"
"0.026175","0.013008","0.010272"
"0.005398","0.015177000000000001","0.015127000000000002"
"-0.0069489999999999994","0.017057","0.021285"
"-0.021879","0.017218999999999998","0.024184999999999998"
"-0.009554","0.026711000000000002","0.037515"
"-0.00112","0.030931","0.048506"
"-0.011163","0.01211","0.049016000000000004"
"-0.035292000000000004","-0.026277","0.049316000000000006"
"-0.033611","-0.023405000000000002","0.034229"
"-0.025521000000000002","-0.014421000000000002","0.030318"
"-0.009969","-0.011947","0.032165"
"0.027098","0.010102","0.026664999999999998"
"0.026808","0.016659999999999998","0.024339"
"0.035351","0.027704000000000003","0.027949"
"0.007436","-0.001458","0.034516000000000005"
"0.009215000000000001","-0.004914","0.040776"
"0.008731000000000001","0.002909","0.046157"
"-0.007058","0.00013700000000000002","0.048712"
"-0.00044500000000000003","-0.0036090000000000002","0.047512"
"0.002238","-0.002916","0.046818"
"0.005999","0.003614","0.045162"
"0.006404000000000001","0.005841","0.048103"
"0.003513","0.012603","0.048320999999999996"
"0.004591","0.014728999999999999","0.044697"
"0.003692","0.004772","0.041885000000000006"
"0.001894","0.004746","0.043917000000000005"
"-0.003356","-0.006268","0.044335"
"-0.013988999999999998","-0.009867","0.047501"
"-0.019057","-7.2e-05","0.04777"
"-0.022389","0.002298","0.046625"
"-0.027048000000000003","0.00040300000000000004","0.046131"
"-0.026108999999999997","-0.000553","0.044354000000000005"
"-0.020184999999999998","0.0024289999999999997","0.043801"
"-0.015771","-0.001184","0.042276999999999995"
"-0.020179","-0.014872999999999999","0.042356"
"-0.033139999999999996","-0.009336","0.046254"
"-0.043265","0.006367","0.048694"
"-0.046380000000000005","0.015961000000000003","0.050414999999999995"
"-0.042138999999999996","0.009392","0.050578"
"-0.036885","0.00286","0.047901"
"-0.031010000000000003","-0.001507","0.046058"
"-0.026257","0.0013779999999999999","0.044716000000000006"
"-0.023746","0.013184","0.047905"
"-0.018359","0.009789","0.053852"
"-0.017841","-0.005899000000000001","0.056215"
"-0.016121","-0.003934","0.058123"
"-0.022034","-0.0073349999999999995","0.057849"
"-0.028929000000000003","-0.005222999999999999","0.053402"
"-0.025456","-0.004848","0.051458000000000004"
"-0.015422","0.004242","0.044601999999999996"
"0.00413","0.011465000000000001","0.039636000000000005"
"0.01324","0.004674","0.040244"
"0.008169","-0.0032649999999999997","0.037613"
"-0.002386","-0.003247","0.039898"
"-0.007525","0.006887999999999999","0.038557"
"-0.004764","0.022497","0.033193"
"-0.005765999999999999","0.024885","0.032804"
"-0.0181","0.009701999999999999","0.044884"
"-0.027038999999999997","-0.008517","0.058736000000000003"
"-0.033308","-0.012744","0.063779"
"-0.042446","-0.008909","0.061159000000000005"
"-0.037142","-0.008833","0.05424"
"-0.026333999999999996","0.000196","0.040432"
"-0.022525","0.001995","0.036321"
"-0.016073","0.000518","0.0359"
"0.002358","-0.006514","0.022735"
"0.012425","0.001026","0.014830000000000001"
"0.025706","0.008020999999999999","0.010648999999999999"
"0.031685000000000005","0.00861","0.005265"
"0.02645","0.002846","0.007755"
"-0.004619","0.015529","0.021713999999999997"
"-0.031552","0.023571","0.043754"
"-0.054144000000000005","0.019632","0.06427100000000001"
"-0.068802","0.002202","0.07964199999999999"
"-0.060351","-0.013347999999999999","0.076778"
"-0.040586000000000004","-0.010678","0.063111"
"-0.033399","0.00042300000000000004","0.039684"
"-0.022559","0.0016690000000000001","0.023204"
"-0.007690000000000001","-0.00040899999999999997","0.028619"
"0.003076","-0.006864","0.035427999999999994"
"0.001215","-0.009625","0.035947"
"-0.006064","-0.008735","0.033576999999999996"
"-0.016174","-0.003426","0.024416999999999998"
"-0.022596","0.008793","0.024291999999999998"
"-0.025462000000000002","0.014440999999999999","0.031991000000000006"
"-0.0246","0.012723","0.040924"
"-0.032726","0.001643","0.049308"
"-0.03797","-0.002001","0.049841"
"-0.04194","-0.002656","0.05845499999999999"
"-0.029127999999999998","-0.0070030000000000005","0.04652"
"-0.023888999999999997","-0.0037939999999999996","0.04091"
"-0.015491","0.002702","0.031546"
"-0.0017280000000000002","-0.002208","0.028973000000000002"
"-0.00033999999999999997","-0.000733","0.029470999999999997"
"-0.0019320000000000001","-0.000344","0.028946"
"-0.004185","-0.001593","0.031800999999999996"
"-0.008140000000000001","-0.000987","0.031896"
"-0.012922999999999999","0.0057469999999999995","0.034407"
"-0.016304","0.005155","0.029869999999999997"
"-0.018854","0.005351","0.032652"
"-0.017703999999999998","0.005715","0.024452"
"-0.010898999999999999","0.006002","0.028031"
"-0.0053159999999999995","0.002332","0.028620999999999997"
"-0.003341","0.003926","0.028338"
"0.003128","0.001945","0.026226999999999997"
"0.00788","-0.000772","0.025775"
"0.011295","0.0026","0.02738"
"0.009237","0.004536999999999999","0.027987"
"0.0060479999999999996","0.0020870000000000003","0.028544999999999997"
"-0.007024","0.001967","0.027092"
"-0.017787","0.006235","0.025032"
"-0.023234","0.0035770000000000003","0.023122999999999998"
"-0.021608000000000002","-0.000776","0.021512"
"-0.019344","0.0038399999999999997","0.020709"
"-0.016193","0.0033049999999999998","0.024981"
"-0.013405000000000002","0.000831","0.030299"
"-0.01023","-0.003532","0.035621"
"-0.010395999999999999","-0.004209","0.037259"
"-0.008686","-0.002398","0.037619"
"-0.010197","0.000269","0.036084"
"-0.009633","0.0035299999999999997","0.038981"
"-0.013259","0.002447","0.03673"
"-0.014641999999999999","0.001046","0.033471"
"-0.0202","0.00038700000000000003","0.033531"
"-0.022185","0.00041900000000000005","0.034461"
"-0.033431","0.0005650000000000001","0.037275"
"-0.024736","-7.7e-05","0.043254"
"-0.023804","0.002019","0.042876"
"-0.019223","-4.5e-05","0.046303"
"-0.023964","0.003293","0.045252"
"-0.026095999999999998","0.001736","0.047429"
"-0.029806","-0.001423","0.05033"
"-0.029788","0.003221","0.05018"
"-0.031236","0.003616","0.050838"
"-0.039792","0.000519","0.054314999999999995"
"-0.030861000000000003","-0.008486","0.06731000000000001"
"-0.025429","-0.006665000000000001","0.07184299999999999"
"-0.010014","-0.00491","0.080669"
"-0.009965","-0.004868","0.081983"
"-0.003981","-0.009668000000000001","0.079748"
"0.0017629999999999998","-0.009855","0.079712"
"0.003175","-0.0060030000000000005","0.07509199999999999"
"0.007894","-0.0047009999999999994","0.072062"
"0.006027","-0.0006450000000000001","0.067669"
"0.005019","-0.000741","0.066676"
"-0.008078","0.001317","0.058362"
"-0.018091","0.004656","0.047689999999999996"
"-0.02174","0.004875","0.04484"
"-0.02478","0.004377000000000001","0.047252999999999996"
"-0.023919","-0.000842","0.049512"
"-0.023622999999999998","0.000173","0.047313"
"-0.027906","0.001957","0.038429000000000005"
"-0.024791999999999998","-0.000156","0.028695"
"-0.015728","-0.004061","0.022803"
"-0.009379","0.0012619999999999999","0.021656"
"-0.008489","0.002944","0.018212"
"-0.00507","0.004529","0.015839"
"-0.006564","0.006639","0.012551999999999999"
"-0.00504","0.007568999999999999","0.012019"
"0.003853","0.009486","0.01225"
"0.0049380000000000005","0.003168","0.023684"
"0.001888","0.003336","0.027522"
"0.001812","0.004561","0.032531"
"0.000276","-0.000123","0.034615"
"0.000674","-0.00073","0.032022"
"0.003595","7.4e-05","0.036532"
"0.00705","0.00079","0.043202"
"0.0055969999999999995","0.001615","0.040734"
"0.005643","0.001757","0.028335000000000003"
"0.006104","0.002148","0.024495"
"0.014632","-0.0007740000000000001","0.025485"
"0.011165000000000001","-0.000337","0.029948000000000002"
"0.005804999999999999","-0.0017469999999999999","0.029948000000000002"
"0.000226","0.001674","0.030779"
"0.00173","0.001115","0.033320999999999996"
"0.003942","0.00041","0.032867"
"0.008554","-0.010685","0.040972"
"0.012579","-0.012168","0.045241"
"0.013424","-0.007417","0.037067"
"0.015103","0.0037909999999999997","0.026215"
"0.019487","0.008008","0.021128"
"0.013904","0.001622","0.020309"
"0.006361","-0.000599","0.028702999999999996"
"0.005652","-0.002365","0.027887000000000002"
"0.004407","0.0020629999999999997","0.027329000000000003"
"0.006426","0.005768","0.027542"
"0.00548","0.005543","0.025286000000000003"
"0.000534","0.004144","0.030646"
"-0.005573","0.002849","0.035567"
"-0.012586","0.0031850000000000003","0.043351"
"-0.014459","0.003188","0.041520999999999995"
"-0.023785","-0.001351","0.041711"
"-0.022556","-0.004366","0.043447"
"-0.027551999999999997","0.000392","0.041544"
"-0.022681","0.004408","0.046392"
"-0.025889999999999996","0.001394","0.047878"
"-0.036603","-8.6e-05","0.046054000000000005"
"-0.040767000000000005","-0.003886","0.036212"
"-0.0401","-0.004413","0.033617"
"-0.033469","-0.000897","0.029394999999999998"
"-0.030715","-0.00101","0.028957999999999998"
"-0.021936","1.7e-05","0.030701999999999997"
"-0.005327","0.0028899999999999998","0.040277"
"-0.01811","0.003437","0.044949"
"-0.024683","-0.00084","0.042468"
"-0.032902","0.000102","0.041463"
"-0.032923","-0.0010789999999999999","0.042644999999999995"
"-0.027885000000000004","-0.003246","0.040573000000000005"
"-0.017467","-0.0048259999999999996","0.037581"
"-0.017856999999999998","-0.005424","0.039399"
"-0.014284999999999999","-0.002094","0.03581"
"-0.008490000000000001","0.001782","0.031735"
"-0.005737","0.002792","0.03"
"-0.004039","0.00822","0.029311"
"-0.000676","0.003433","0.025038"
"-0.001748","0.006848000000000001","0.02481"
"-0.000927","0.008421","0.026039999999999997"
"0.002983","0.006345","0.027967000000000002"
"0.00061","0.007134000000000001","0.028187"
"-0.004251","0.006488","0.032393"
"0.000852","0.00428","0.035412"
"-0.003836","-0.0035310000000000003","0.040083"
"-0.0017519999999999999","0.000682","0.037383"
"0.005496","-0.004436","0.045187"
"0.007391","-0.008142","0.054365"
"0.005229","-0.007393","0.058827"
"0.016781","-0.003797","0.051483"
"0.026429","0.001463","0.045056"
"0.030501","0.0003","0.039806"
"0.029559","-0.001317","0.037736"
"0.022147999999999998","0.002209","0.032349"
"0.01592","0.0056229999999999995","0.030355"
"0.009893","0.001198","0.031795"
"0.010338","-0.000259","0.032799"
"0.012041","-0.001297","0.032425"
"0.014765","0.000877","0.034664"
"0.018657","0.005396","0.031076999999999997"
"0.018001","0.0050479999999999995","0.031375"
"0.016715","-0.002113","0.035733"
"0.019215","-0.004037","0.037325"
"0.020524","-0.002932","0.042966000000000004"
"0.012757","0.001342","0.050464999999999996"
"0.009503","0.010032","0.052323"
"0.0059759999999999995","0.009231","0.052378999999999995"
"-0.007339","0.010033","0.045307"
"-0.01655","0.004255","0.038728"
"-0.016122","0.000826","0.036272000000000006"
"-0.032748","-0.005795000000000001","0.038306"
"-0.039377999999999996","-0.00234","0.046822"
"-0.04018","-0.0040950000000000005","0.048774"
"-0.066437","0.00025299999999999997","0.047873"
"-0.050621","-0.009063","0.035955"
"-0.046604","-0.006248","0.029505"
"-0.037416000000000005","-0.007136","0.032779"
"-0.036643","-0.005012","0.03808"
"-0.030764999999999997","-0.002255","0.046781"
"-0.027388","-0.002121","0.045288"
"-0.027888999999999997","8.7e-05","0.02768"
"-0.030204","0.001707","0.021398"
"-0.032375","0.002514","0.018521"
"-0.039902","0.007776000000000001","0.01967"
"-0.039528","0.0065780000000000005","0.025935000000000003"
"-0.044051","0.009876000000000001","0.03709"
"-0.04577","0.004654","0.035463"
"-0.056329","0.004441","0.034801"
"-0.060234","0.00505","0.032143"
"-0.047493","0.0074129999999999995","0.045193000000000004"
"-0.036894","0.0052450000000000005","0.059080999999999995"
"-0.025908999999999998","0.009276999999999999","0.05878"
"-0.008756","0.005806","0.048195999999999996"
"0.010311","0.0045320000000000004","0.040113"
"0.025346","-0.0040420000000000005","0.038114999999999996"
"0.029604000000000002","-0.01766","0.038957"
"0.025633999999999997","-0.013418000000000001","0.043128"
"0.001622","0.004734","0.05459"
"-0.028730000000000002","0.029975","0.067747"
"-0.060628999999999995","0.031343","0.07195399999999999"
"-0.07736900000000001","0.004871","0.070438"
"-0.09550800000000001","0.00145","0.070934"
"-0.11508199999999999","-0.0117","0.079907"
"-0.118344","-0.027718","0.084496"
"-0.108661","-0.021187","0.082544"
"-0.09336699999999999","-0.0144","0.070135"
"-0.017953","-0.0065650000000000005","0.049023000000000004"
"0.06984299999999999","-0.030566000000000003","0.004713"
"0.07496799999999999","-0.016656","-0.008081999999999999"
"0.070815","0.0023469999999999997","-0.01544"
"0.051916","0.02436","0.0062369999999999995"
"0.051701","0.024314","0.0057810000000000005"
"0.012551999999999999","0.011309","0.006490000000000001"
"-0.013604","0.020523","0.007533"
"-0.032878","0.018096","0.008027"
"-0.057946000000000004","0.008865000000000001","0.012787"
"-0.061832000000000005","-0.008376","0.036208"
"-0.045370999999999995","-0.015538","0.045136"
"-0.000869","-0.031915","0.042526999999999995"
"0.007382","-0.034041","0.025504"
"0.016280000000000003","-0.035006","0.006633"
"0.021343","-0.0068189999999999995","0.005417"
"0.010973","0.025063","0.015331000000000001"
"-0.000129","0.040479","0.029039"
"-0.026605","0.024836","0.050214"
"-0.057058000000000005","0.012062","0.06819700000000001"
"-0.075076","0.0030629999999999998","0.080621"
"-0.06577899999999999","0.008027","0.080375"
"-0.038235000000000005","-0.002165","0.090886"
"-0.038606","-0.00196","0.093971"
"0.039452","0.023094","0.091248"
"0.050091000000000004","0.009379","0.089792"
"0.080347","-0.016666999999999998","0.061028"
"0.123451","-0.057902999999999996","-0.023916999999999997"
"0.151166","-0.0032049999999999995","-0.038714"
"0.13575","0.03988","-0.022538"
"0.097355","0.040553","-0.007882"
"0.042395999999999996","0.010465","-0.002699"
"-0.0027530000000000002","0.010867","0.012528000000000001"
"-0.032865","0.016343","0.028913"
"-0.033731","0.012623","0.039773"
"-0.031025999999999998","0.001143","0.046501999999999995"
"-0.030937","-0.007640999999999999","0.050495"
"-0.030808999999999996","-0.012353","0.059939"
"-0.014362999999999999","-0.012018000000000001","0.059364"
"-0.004489","-0.011276000000000001","0.054959"
"-0.0014140000000000001","-0.008184","0.035633"
"-0.012844999999999999","-0.0038619999999999995","0.014538999999999998"
"-0.011729","-0.004765","0.002194"
"-0.038575","0.002598","-0.006213000000000001"
"-0.045139","-0.000298","-0.004017"
"-0.059587","-0.004659","0.001026"
"-0.07788400000000001","-0.00897","0.002843"
"-0.084084","-0.003281","0.0037310000000000004"
"-0.080649","0.001387","0.004333"
"-0.066682","0.010733","0.015571999999999999"
"-0.066325","0.010731000000000001","0.015271000000000002"
"-0.05366","0.007118000000000001","0.024108"
"-0.047807","-0.003987","0.013425999999999999"
"-0.045834","-0.010618","0.001433"
"-0.044072","-0.011531999999999999","-0.014485"
"-0.044864999999999995","-0.006716","-0.031027999999999997"
"-0.053203999999999994","-0.002081","-0.034485"
"-0.071913","0.005507","-0.033076999999999995"
"-0.079774","0.008929000000000001","-0.018982"
"-0.08661","-0.000192","-0.007488"
"-0.098285","0.006448000000000001","-0.011475"
"-0.105341","0.015018","-0.0056359999999999995"
"-0.109398","0.021813","-0.007523"
"-0.107","0.023707","-0.010699"
"-0.10911099999999999","-0.001825","-0.000891"
"-0.101006","-0.008109","0.008662999999999999"
"-0.08947100000000001","-0.0075239999999999994","0.012014"
"-0.070913","-0.009154","0.020456000000000002"
"-0.063847","-0.013739","0.020868"
"-0.054573","-0.010761","0.035746"
"-0.049336","-0.009431","0.043055"
"-0.042573","-0.007859999999999999","0.057809000000000006"
"-0.02323","-0.018463","0.062803"
"-0.007709000000000001","-0.026019999999999998","0.070363"
"0.009129","-0.008338","0.08605"
"0.024436000000000003","-0.010518000000000001","0.094806"
"0.040318","-0.002364","0.09060800000000001"
"0.065741","-0.002025","0.090692"
"0.095938","0.005398","0.098075"
"0.117172","0.02404","0.113204"
"0.116876","0.021782","0.12409300000000001"
"0.101156","0.026404","0.11928"
"0.08125","0.031495999999999996","0.11384100000000001"
"0.065789","0.030892000000000003","0.098794"
"0.053509","0.015337","0.080513"
"0.04809","-0.002559","0.059188"
"0.036148","-0.022882","0.045149"
"0.021846","-0.041096","0.034783"
"0.0038659999999999996","-0.01764","0.033161"
"-0.00579","0.007807","0.021868000000000002"
"-0.014969","0.011331","0.015566"
"-0.031208","0.016791999999999998","-0.0014210000000000002"
"-0.036447","0.02412","-0.011099"
"-0.029012","0.040391","-0.044726999999999996"
"-0.019209","0.029945999999999997","-0.043798000000000004"
"-0.016204","0.032438","-0.035486000000000004"
"0.011384","0.017917","-0.009577"
"0.024089","0.016076","-0.001276"
"0.025313","0.003112","0.005403"
"0.049254","-0.000439","0.013078999999999999"
"0.067133","0.007677","0.016411000000000002"
"0.055353999999999993","-0.000298","0.009318"
"0.049455","-0.007854","0.004677000000000001"
"0.050787","0.001271","0.01054"
"0.054969000000000004","0.007393","0.012376999999999999"
"0.056591999999999996","0.01264","0.013217"
"0.06765","0.019222","0.038467"
"0.072828","0.008909","0.06490399999999999"
"0.07020900000000001","0.003393","0.07396900000000001"
"0.06723","-0.024441","0.056843"
"0.068001","-0.016058000000000003","0.053645000000000005"
"0.067913","0.00022400000000000002","0.048889"
"0.026113","0.031","0.059014"
"0.012899","0.026282","0.061966"
"-0.007309","0.008453","0.063986"
"-0.022016","-0.012197","0.052391"
"-0.011875","-0.008561","0.048389"
"-0.018615","-0.007579000000000001","0.030123"
"-0.036223000000000005","-0.001737","0.022446999999999998"
"-0.020906","0.008234","0.039211"
"-0.001267","0.027817","0.056384000000000004"
"-0.005243","0.018281","0.05386799999999999"
"-0.001092","-0.00046399999999999995","0.050486"
"0.006512","-0.023301","0.038644"
"0.0023469999999999997","-0.025318","0.0169"
"-0.0013800000000000002","-0.02122","0.014225"
"-0.036015","0.00212","-0.004104"
"-0.023073","0.015238","0.016142"
"-0.020334","0.022856","0.027977"
"-0.05124600000000001","0.023316","0.043541"
"-0.063399","0.012808000000000002","0.058753999999999994"
"-0.060638","-0.013768","0.03583"
"-0.062628","-0.01407","0.049765"
"-0.067204","-0.025466","0.032826999999999995"
"-0.08566900000000001","-0.019247","0.028048000000000003"
"-0.098087","-0.010164","0.063628"
"-0.071588","0.017656","-0.004156"
"-0.080341","0.018755","-0.028781"
"-0.089805","0.024151","-0.027295999999999997"
"-0.085774","0.021519","-0.015732"
"-0.083565","0.022952","0.020022"
"-0.08231000000000001","0.0054659999999999995","0.05594299999999999"
"-0.068708","-0.012813999999999999","0.078513"
"-0.07058400000000001","-0.038468","0.084451"
"-0.06880800000000001","-0.059453","0.092619"
"-0.038599","-0.08694500000000001","0.09585199999999999"
"-0.022077","-0.093138","0.08495499999999999"
"0.002301","-0.026657999999999998","0.048586000000000004"
"-0.0020670000000000003","0.04743","0.022685"
"-0.030177","0.06841699999999999","0.012329999999999999"
"-0.060951","0.032357","0.023532"
"-0.058123","0.007384","0.022767"
"-0.058649","0.006546","0.017746"
"-0.046332","-0.015745","-0.006503"
"-0.0427","-0.013628","-0.022066"
"-0.030012999999999998","0.002306","-0.021705000000000002"
"-0.011470000000000001","8.6e-05","-0.027908"
"0.025315","-0.014252","-0.035073"
"0.046179000000000005","-0.002239","-0.055447"
"0.049642","0.025580000000000002","-0.06592100000000001"
"0.041326","0.027469999999999998","-0.070658"
"0.013991","0.044826","-0.06497"
"-0.011981","0.041651","-0.033523000000000004"
"-0.041291","0.004418","0.005913"
"-0.064529","-0.022161","0.036709"
"-0.068481","-0.022935","0.038089"
"-0.064978","-0.018581999999999998","0.031952999999999995"
"-0.050154000000000004","-0.013838","0.013153"
"-0.033514999999999996","0.000383","-0.014182"
"-0.030407999999999998","0.004824","-0.0139"
"-0.02544","0.010147","-0.014327000000000001"
"-0.02163","0.001848","-0.013805000000000001"
"-0.012688","-0.011207","-0.011399"
"0.0007480000000000001","-0.017262","-0.011306"
"0.007375","-0.014801","-0.015041999999999998"
"0.005249","0.005385","-0.012617"
"-0.007949","0.009637999999999999","-0.009826"
"-0.028136","0.006977","-0.007103"
"-0.051225","0.008153","0.0034240000000000004"
"-0.064041","0.004039","0.013874000000000001"
"-0.066603","-0.006585","0.023765"
"-0.061838","-0.012997","0.031208"
"-0.059457","-0.011536","0.033645999999999995"
"-0.05785800000000001","-0.010553","0.033391000000000004"
"-0.05369500000000001","0.0033539999999999998","0.028745"
"-0.040851","0.010103000000000001","0.020865"
"-0.024876","0.007994","0.01236"
"-0.014378","0.001628","0.011498"
"-0.011963","-2.8999999999999997e-05","0.013819"
"-0.000339","-0.013928","0.027065"
"-0.0032530000000000002","-0.018951","0.038191"
"-0.005157","-0.017628","0.034122"
"-0.006665000000000001","-0.018928","0.038616000000000004"
"-0.012531","-0.0067599999999999995","0.038888"
"-0.013578999999999999","0.0022140000000000003","0.032125"
"0.028196","-0.008596","0.115449"
"-0.015933000000000003","0.026893","0.060559"
"-0.056999","0.045662","-0.014112000000000001"
"-0.081857","0.027433","-0.025484"
"-0.058035","0.031385","0.073251"
"-0.045935000000000004","0.02785","0.084642"
"-0.036463999999999996","-9.6e-05","0.08367000000000001"
"-0.035537","-0.016308","0.070031"
"-0.024544999999999997","-0.005289","0.06603400000000001"
"-0.013627","-0.001871","0.067062"
"-0.007801000000000001","0.0070079999999999995","0.063194"
"-0.013369999999999998","0.009309999999999999","0.063972"
"-0.009361","0.008195000000000001","0.052013"
"-0.020087","0.0027890000000000002","0.051694000000000004"
"-0.011106999999999999","0.003065","0.063902"
"0.002118","-0.002432","0.073486"
"-0.007261","-0.007589","0.067868"
"-0.011611","-0.004155","0.061153"
"-0.019293","-0.0073019999999999995","0.040882999999999996"
"0.0046619999999999995","0.007631000000000001","0.04713"
"0.008295","0.00645","0.04576"
"-0.024507","0.011418000000000001","0.037126"
"-0.006059","0.010609","0.016489"
"-0.001546","0.007248999999999999","0.017176"
"-0.0033399999999999997","-0.001451","0.024011"
"-0.003768","0.003867","0.025661"
"-0.013666","0.013496000000000001","0.030826"
"-0.015746","0.008801999999999999","0.028562"
"0.006147","0.020397","0.022352"
"0.012222","0.0069299999999999995","0.025072"
"-0.00725","0.013134","0.021231"
"-0.008193","0.022073","0.01956"
"-0.0008869999999999999","0.022249","0.03659"
"0.011234000000000001","0.004045","0.041908"
"0.018543","0.007890000000000001","0.034743"
"0.010283","0.001309","0.034272000000000004"
"0.013915","0.006904","0.050950999999999996"
"0.005215999999999999","-0.002404","0.045509"
"0.000799","-0.001721","0.041972"
"-0.01052","0.0055780000000000005","0.045068000000000004"
"-0.0125","0.009507999999999999","0.034714999999999996"
"-0.028067","-0.032029","0.054344"
"-0.025747000000000003","0.002826","0.06961"
"-0.017275","0.004642","0.073134"
"-0.015673","0.012262","0.06752999999999999"
"-0.048762","-0.014041999999999999","0.064586"
"-0.056357000000000004","-0.01961","0.059177"
"-0.054288","-0.014963999999999998","0.057101"
"-0.036291000000000004","-0.035848000000000005","0.042584"
"-0.010606","-0.029862","0.038993"
"0.0007099999999999999","-0.002526","0.042026"
"-0.018308","0.109785","-0.010445999999999999"
"-0.078261","0.022113","-0.017381999999999998"
"-0.028829","0.040438","0.027371"
"-0.014528","-0.003135","0.039248000000000005"
"-0.008666","-0.007131","0.052736"
"-0.0065260000000000006","-0.015619","0.053388"
"-0.012525","-0.003619","0.045716"
"-0.021240000000000002","0.0032890000000000003","0.031258999999999995"
"-0.020943","0.009954000000000001","0.020343"
"-0.026680000000000002","0.011698","0.026382999999999997"
"-0.020617","0.008947","0.033769"
"-0.016484","0.02773","0.029032"
"-0.019956","0.008662000000000001","0.046142"
"-0.000254","0.00021","0.048635000000000005"
"0.003261","0.044036","0.028745"
"-0.050574","0.022938","0.027574"
"-0.037533","-0.026281","0.039044"
"-0.059836","-0.037197","0.028781"
"-0.046974","-0.026574","0.023681999999999998"
"-0.031251999999999995","-0.016328","0.051620000000000006"
"-0.030338","-0.015962","0.053613"
"-0.041833999999999996","0.008362","0.022923"
"-0.043595","0.014646000000000001","0.016177"
"-0.045844","0.042592000000000005","0.010779"
"-0.039429","0.019909","0.021596"
"-0.037452","-0.000196","0.038209"
"-0.026285000000000003","-0.001501","0.042053"
"-0.038689999999999995","0.007657","0.036699"
"-0.034877","-0.00046399999999999995","0.030507"
"0.0012720000000000001","-0.017662","0.024599"
"-0.012694","-0.025159","0.012178"
"-0.022086","-0.030699","0.025504"
"-0.018834","0.0014140000000000001","0.027368"
"-0.031051","-0.00199","0.011512"
"-0.015263999999999998","0.0025570000000000002","0.012613"
"-0.014929","-0.003754","0.009519"
"-0.021258000000000003","-0.009831999999999999","0.0048200000000000005"
"-0.03281","-0.013257","-0.007429000000000001"
"-0.017602","-0.015544","0.014232"
"0.004842","0.005424","-0.004684000000000001"
"-0.017927000000000002","0.008191","-0.026670999999999997"
"-0.026543999999999998","0.0026449999999999998","-0.038883999999999995"
"-0.016635","0.0024289999999999997","-0.033763"
"-0.017863","0.006211","-0.024496"
"-0.029697","0.00038700000000000003","-0.007019"
"-0.02345","0.000354","0.002671"
"-0.021491","0.005554","-0.002726"
"-0.036965","0.007865","-0.025018000000000002"
"-0.019927","0.0035689999999999997","-0.033304"
"-0.023038","0.0038369999999999997","-0.027361"
"-0.013193999999999999","0.006673999999999999","-0.014334"
"-0.012475","0.0036630000000000005","-0.005485"
"-0.021033","0.005602","0.011462"
"-0.022394","0.006997","0.014972999999999998"
"-0.026368","0.00898","0.01818"
"-0.02683","0.006298","0.021879"
"-0.027899","0.0041329999999999995","0.022289"
"-0.033574","-0.0047420000000000006","0.036131"
"-0.027029","-0.003771","0.051816999999999995"
"-0.02166","-0.003981","0.047598"
"-0.018869999999999998","0.003944","0.025836"
"-0.014009","0.015425","-1.1e-05"
"-0.014581","0.010614","-0.005159"
"-0.006152","0.002139","-0.0075"
"-0.020734","-0.018724","0.005575"
"-0.021463","-0.019081","0.003972"
"-0.040011","-0.012314","0.023027000000000002"
"-0.033861","-0.016972","0.030641"
"-0.034558","-0.017418","0.028360000000000003"
"-0.026488","-8.1e-05","0.034017"
"-0.029385","0.008483","0.030157"
"-0.03537","0.006773","0.032398"
"-0.043517","0.015962","0.031741000000000005"
"-0.039847","0.0172","0.036564"
"-0.03932","0.014950999999999999","0.043745"
"-0.037358999999999996","0.013694999999999999","0.051623"
"-0.043071","0.014986000000000001","0.06335199999999999"
"-0.040786","0.019017","0.067272"
"-0.029480000000000003","0.020061000000000002","0.074281"
"-0.021581","0.014484","0.079979"
"-0.013578","0.006365999999999999","0.087263"
"-0.031142000000000003","-0.021471","0.09549400000000001"
"-0.023524","-0.041003","0.10531300000000002"
"-0.017369","-0.04075","0.11270799999999999"
"-0.0028510000000000002","-0.013932","0.11919300000000001"
"-0.007108","0.0041","0.112326"
"-0.02611","0.02595","0.09402"
"-0.040025","0.02562","0.06894299999999999"
"-0.041103","0.023681999999999998","0.060445000000000006"
"-0.036947","0.018993","0.052188"
"-0.037131","0.009895000000000001","0.057189"
"-0.038852","0.003329","0.051673000000000004"
"-0.032313999999999996","-0.000196","0.042669"
"-0.025351","-0.002373","0.03635"
"-0.028010000000000004","-0.004059","0.037755000000000004"
"-0.024467","0.005836","0.035363"
"-0.025655","0.013041","0.031862"
"-0.023937","0.013451","0.023593"
"-0.0114","0.012856","0.021461"
"-0.0028829999999999997","0.016258","0.023768"
"-0.011773","0.01624","0.022552000000000003"
"-0.011186","0.012346","0.024149"
"-0.010413","0.0048259999999999996","0.029467"
"-0.01684","0.010542000000000001","0.036004"
"-0.020262","0.0055509999999999995","0.034006"
"-0.0239","-0.004314","0.023791999999999997"
"-0.030039","-0.010831","0.020419"
"-0.029131","-0.012919","0.020737000000000002"
"-0.018952","-0.000443","0.011601"
"-0.027183","0.011833","0.004068"
"-0.031560000000000005","0.013319","0.003967"
"-0.034286000000000004","0.011143","0.0034289999999999998"
"-0.039972","0.009307","0.012946000000000001"
"-0.041608","0.006847","0.015580000000000002"
"-0.045302999999999996","0.002852","0.018326"
"-0.040468000000000004","0.001449","0.028548"
"-0.041250999999999996","0.001349","0.028561000000000003"
"-0.034825999999999996","0.006406","0.033048"
"-0.023208000000000003","0.009205","0.031377999999999996"
"-0.019403999999999998","0.009283","0.029301"
"-0.017911","0.008097","0.029008999999999997"
"0.001695","0.003295","0.021314"
"0.004935","0.003156","0.018212"
"0.019476","-0.007203","0.014753"
"0.021156","-0.010543","0.015609999999999999"
"0.023212","-0.01459","0.014919"
"0.025138999999999998","-0.0067090000000000006","0.015489"
"0.016564","-0.0074140000000000005","0.014735"
"0.014072999999999999","-0.008759000000000001","0.017651"
"0.009515000000000001","-0.0034049999999999996","0.023633"
"0.010515","0.0056689999999999996","0.023219"
"0.006670999999999999","0.007644","0.021206"
"-0.004343","0.000951","0.021362"
"-0.005603","0.000336","0.022756000000000002"
"-0.009517","0.002152","0.022462"
"-0.014346000000000001","-0.003071","0.015858"
"-0.017386000000000002","-0.009963","0.013671"
"-0.0258","-0.007847","0.009101"
"-0.051347000000000004","0.0013830000000000001","-0.007131"
"-0.06353400000000001","0.006278","-0.018846"
"-0.059503999999999994","0.025507","-0.037648"
"-0.04088","0.035038","-0.036301"
"-0.027532","0.020599","-0.020617"
"-0.033548","0.016131","-0.011053"
"-0.04437","0.012469","-0.00502"
"-0.059252","0.003692","-0.0025440000000000003"
"-0.06766","-0.006029","0.0035740000000000004"
"-0.065225","-0.006481999999999999","0.018037"
"-0.053119000000000006","-0.005827000000000001","0.031342"
"-0.05361900000000001","-0.0032189999999999996","0.040743"
"-0.042225","-0.0063030000000000004","0.044728"
"-0.032433","-0.002698","0.039905"
"-0.018671","0.005557","0.039728"
"-0.000405","0.004117","0.045943"
"-0.00325","0.006626999999999999","0.05640800000000001"
"-0.012921","-0.00566","0.061274"
"-0.03199","-0.015092","0.046765"
"-0.026833","-0.002065","0.013741999999999999"
"-0.016652","0.007726","0.0035689999999999997"
"-0.011909999999999999","0.010846","-0.004185"
"-0.005337","0.014438","0.000269"
"-0.002164","0.014972999999999998","0.00507"
"0.000145","0.013359000000000001","0.008877"
"-0.004047","0.007959","0.031853"
"-7.3e-05","0.007831","0.034331"
"0.003225","0.00811","0.042230000000000004"
"0.016201","0.0061649999999999995","0.073438"
"0.011109","0.003851","0.072861"
"0.0075450000000000005","-0.003532","0.08692799999999999"
"0.006478","-0.0018969999999999998","0.09138500000000001"
"0.002079","-0.001294","0.093723"
"-0.0039109999999999995","-0.00021600000000000002","0.088226"
"-0.010423","-0.000727","0.07599500000000001"
"-0.010211","0.000995","0.076387"
"-0.018881000000000002","0.017236","0.070024"
"-0.030695","0.012702","0.069229"
"-0.034654000000000004","0.010722","0.067497"
"-0.033002","0.010062","0.070525"
"-0.045132","0.014152000000000001","0.075286"
"-0.057137","0.015718","0.078148"
"-0.061662","0.022890999999999998","0.08225199999999999"
"-0.06573","0.022356","0.083619"
"-0.06390599999999999","0.026297000000000004","0.0859"
"-0.0577","0.034683","0.081789"
"-0.054015999999999995","0.014216","0.082227"
"-0.043852999999999996","-0.012882","0.076066"
"-0.030907","-0.031713","0.069301"
"-0.015278","-0.03487","0.061235000000000005"
"-0.009008","-0.031394","0.056807"
"0.005102000000000001","-0.022966","0.048855"
"-0.006281","-0.008269","0.049335000000000004"
"-0.006475","-0.0052369999999999995","0.053041"
"-0.014341999999999999","0.002536","0.054065999999999996"
"-0.019853","0.00692","0.052387"
"-0.021823","0.010357","0.046625"
"-0.020796000000000002","0.017759","0.036229000000000004"
"-0.023472999999999997","0.016263999999999997","0.032676"
"-0.023673","0.0151","0.035279000000000005"
"-0.015308","0.020666","0.044525"
"-0.002628","0.035947","0.052478"
"-0.052512","0.044943000000000004","0.050115"
"-0.062024","0.016955","0.053329999999999995"
"-0.07539900000000001","-0.01112","0.041593"
"-0.07298500000000001","-0.01904","0.035393"
"-0.028347000000000004","-0.023483","0.013340000000000001"
"0.013966999999999999","-0.01838","0.005422"
"0.006976","-0.005358","-0.0042060000000000005"
"0.027056","0.011693","-0.003013"
"0.014603999999999999","0.027397","-0.0052"
"0.014634999999999999","0.020013","-0.001088"
"0.011106","0.002075","-0.003454"
"-0.008498","-0.00657","-0.002627"
"-0.003539","-0.009165000000000001","-0.002211"
"-0.000455","-0.004339","0.003026"
"0.014794","0.027638999999999997","0.021511000000000002"
"0.008971999999999999","0.038472000000000006","0.02578"
"-0.024597","0.058716","0.041139999999999996"
"-0.050835000000000005","0.021777","0.050477"
"-0.087663","0.019423","0.055772"
"-0.09508","0.003325","0.038463"
"-0.057615999999999994","-0.044255","0.005836"
"-0.00517","-0.038812","-0.009399"
"-0.012801","-0.017534","-0.011418000000000001"
"0.010462","-0.0013449999999999998","-0.009365"
"0.014681999999999999","0.010237999999999999","-0.0007469999999999999"
"-0.0043619999999999996","0.021315999999999998","-0.002892"
"-0.00303","0.022491","0.008143000000000001"
"-0.01594","0.019436000000000002","0.011572"
"-0.033601","0.014717","0.026672"
"-0.036905","-0.000629","0.040533"
"-0.034489","4.8e-05","0.055792999999999995"
"-0.035361000000000004","-0.003244","0.063834"
"-0.030969999999999998","0.001213","0.062376"
"-0.038061000000000005","0.003172","0.052164"
"-0.033843","-0.001916","0.045952999999999994"
"-0.038066","-0.003348","0.041589999999999995"
"-0.037005","0.001422","0.043177999999999994"
"-0.029396","-0.000394","0.049929"
"-0.023125","-0.002008","0.053507000000000006"
"-0.015639","-0.005716","0.05083"
"-0.014019","-0.004594","0.052079999999999994"
"-0.016808","0.000908","0.045944"
"-0.01377","0.003991","0.042565"
"-0.000807","0.022864","0.044711"
"-0.00511","0.021274","0.050799000000000004"
"-0.015258","0.021854","0.061247"
"-0.010367","0.023709","0.06586399999999999"
"-0.006097999999999999","0.029737","0.07875399999999999"
"-0.012191","0.018994","0.09477200000000001"
"-0.005456","0.008015999999999999","0.11035999999999999"
"-0.0023539999999999998","-0.005834000000000001","0.114226"
"-0.004539","-0.008045","0.10906600000000001"
"-0.010153","-0.018455000000000003","0.086685"
"-0.016626","-0.004105","0.049005"
"-0.020938","0.002442","0.037859"
"-0.017996","0.006556","0.025608999999999996"
"-0.021774","0.023778999999999998","0.012379000000000001"
"-0.0023469999999999997","0.016812","0.024263999999999997"
"-0.0033659999999999996","0.022613","0.038564999999999995"
"0.0042710000000000005","0.025480000000000003","0.052547"
"-0.009727","0.033557","0.05351"
"-0.017653","0.030819","0.056084"
"-0.032374","0.013722999999999999","0.05622100000000001"
"-0.040632999999999996","-0.009842","0.057037"
"-0.035302","-0.021656","0.05386799999999999"
"-0.031472","-0.029087000000000002","0.053285"
"-0.02096","-0.02206","0.057121000000000005"
"-0.018234999999999998","-0.009959","0.061554"
"-0.014684000000000001","0.0004969999999999999","0.065204"
"-0.01555","0.002398","0.060903"
"-0.007354","0.034676","0.053701"
"-0.006381","0.036933","0.046589"
"-0.012813999999999999","0.036044","0.041735"
"0.001164","0.013211","0.053126"
"-0.010509000000000001","0.019059","0.05449299999999999"
"-0.013385","0.023603","0.057271"
"-0.038917","-0.001001","0.050821"
"-0.036801","-0.013881999999999999","0.04933"
"-0.029686","-0.015913999999999998","0.049184"
"-0.022762","-0.008246","0.044673000000000004"
"-0.023319","-0.007866","0.044787"
"-0.018115","-0.0019030000000000002","0.040753"
"-0.01017","0.0070090000000000005","0.038972"
"-0.005831","0.014232","0.042384"
"-0.006611","0.016196000000000002","0.043194"
"-0.013588999999999999","0.007817000000000001","0.043963"
"-0.01942","0.002656","0.044282"
"-0.022286","-0.000195","0.041722"
"-0.024562999999999998","-0.00209","0.044248"
"-0.035982","-0.014303999999999999","0.046064"
"-0.024066999999999998","0.002273","0.04591"
"-0.02334","0.010087","0.044656"
"-0.030363","0.017055","0.045011"
"-0.035671","0.026144999999999998","0.042512"
"-0.055211","0.034825","0.045724"
"-0.053190999999999995","0.029912","0.045874"
"-0.055041","0.011325","0.046724"
"-0.056029999999999996","0.003125","0.043051"
"-0.043332999999999997","-0.012975","0.032198000000000004"
"-0.035306","-0.018299","0.029931"
"-0.005974","-0.014124000000000001","0.021459"
"-0.006377000000000001","-0.004619","0.01674"
"-0.010837000000000001","-0.0017980000000000001","0.015704"
"-0.020084","0.00022400000000000002","0.022979"
"-0.027788","0.01067","0.03071"
"-0.026739999999999996","0.014218999999999999","0.03476"
"-0.032414","0.014524","0.039945999999999995"
"-0.036427","0.009977","0.050691"
"-0.03692","0.007917","0.054104"
"-0.034281","0.006093","0.05579"
"-0.029856999999999998","0.006338","0.056391"
"-0.023324","0.007802","0.056333"
"-0.016789","0.005842","0.046433999999999996"
"-0.003945000000000001","0.00808","0.060799"
"-0.005363000000000001","0.010787999999999999","0.052797000000000004"
"-0.013623","0.0050810000000000004","0.051015"
"0.002777","0.002043","0.042934"
"-0.009996","-0.0033090000000000003","0.046099"
"-0.015846000000000002","-0.002604","0.051525"
"-0.023698","0.005157","0.060404"
"-0.020944","0.003867","0.059501"
"-0.021321","0.010638","0.054626999999999995"
"-0.022099","0.013724","0.047109"
"-0.020318","0.013106","0.041402999999999995"
"-0.021897999999999997","0.013252000000000002","0.036593"
"-0.021389","0.008184","0.037645"
"-0.018479","0.008762","0.040254000000000005"
"-0.015359999999999999","0.008115","0.035338999999999995"
"-0.017349","0.01013","0.035257"
"-0.01799","0.007904000000000001","0.036141"
"-0.020046","0.006689","0.046491000000000005"
"-0.02072","0.009572","0.047965"
"-0.020322999999999997","0.00967","0.048574"
"-0.020937","0.0075840000000000005","0.055087"
"-0.018047","0.008376999999999999","0.05686"
"-0.020988","0.006658","0.056495000000000004"
"-0.020587","0.007109000000000001","0.054224"
"-0.019493","0.004141","0.0519"
"-0.021357","0.004595","0.049707"
"-0.018844999999999997","0.00716","0.047764"
"-0.015484","0.00395","0.048958999999999996"
"-0.01589","0.004081","0.049873"
"-0.01649","0.009958","0.048282"
"-0.017003","0.009018","0.048942"
"-0.018196","0.01042","0.046881"
"-0.020233","0.017795","0.057504999999999994"
"-0.014119","0.031089","0.060601"
"-0.017266","0.02559","0.067949"
"-0.020237","0.013090000000000001","0.06602899999999999"
"-0.027489","0.007351000000000001","0.060212"
"-0.023252000000000002","0.009974","0.058472"
"-0.023796","0.008369","0.055189999999999996"
"-0.026197","0.009301","0.05196"
"-0.025093","0.015046","0.054679"
"-0.027783","0.010154","0.058121000000000006"
"-0.029222","-0.000417","0.075019"
"-0.026622000000000003","-0.002002","0.079136"
"-0.027035000000000003","-0.00286","0.078493"
"-0.027257","-0.000223","0.069664"
"-0.026462","0.004541","0.057172"
"-0.023268","0.008646","0.048006"
"-0.023107","0.008964","0.045363"
"-0.021333","0.009064000000000001","0.04212"
"-0.023403999999999998","0.013559","0.041875"
"-0.029307","0.016595","0.042617"
"-0.030711000000000002","0.018716999999999998","0.041746"
"-0.033486","0.017059","0.043474"
"-0.039938","0.013894","0.045721"
"-0.04123","0.010194","0.046387"
"-0.038610000000000005","0.008159999999999999","0.046655"
"-0.037461","0.004479","0.045301"
"-0.035151","0.001927","0.045420999999999996"
"-0.022701","0.000807","0.046806"
"-0.01703","-0.000143","0.045885"
"-0.010522","0.000193","0.043878"
"-0.001959","0.006481999999999999","0.037612"
"-0.001026","0.007176999999999999","0.028598000000000002"
"-0.002041","0.010462","0.024061000000000003"
"0.000608","0.01204","0.010264"
"-0.00043499999999999995","0.0067540000000000005","0.00702"
"-0.000522","0.005076","0.0069489999999999994"
"-0.007055","0.007871","0.018174"
"-0.010423","0.010712000000000001","0.023941"
"-0.018287","0.008669","0.030812"
"-0.024125","0.014819","0.034211"
"-0.028658","0.019788","0.036144"
"-0.031038","0.013894","0.038327999999999994"
"-0.028675","0.000519","0.05524"
"-0.020099000000000002","-0.003001","0.067187"
"-0.013959000000000001","-0.002165","0.06797"
"-0.008022","0.005002","0.062469000000000004"
"-0.011066","0.013503","0.051959000000000005"
"-0.009687000000000001","0.014702000000000002","0.047097"
"-0.016003","0.015816999999999998","0.035742"
"-0.014343999999999999","0.011363","0.030979000000000003"
"-0.016924","0.009516","0.033389999999999996"
"-0.021835","0.007201000000000001","0.045344"
"-0.027364","0.008359","0.055838"
"-0.028975","0.008223999999999999","0.057589999999999995"
"-0.032443","0.006745","0.06379"
"-0.037175","0.01438","0.069"
"-0.035192","0.016079","0.068162"
"-0.036515","0.015256","0.066398"
"-0.029432","0.011167","0.0741"
"-0.029173","0.011398","0.075026"
"-0.025580000000000002","0.009496","0.06315"
"-0.02559","0.008192","0.058046"
"-0.027408999999999996","0.008168","0.059440999999999994"
"-0.025695","0.0057009999999999995","0.058227999999999995"
"-0.021462000000000002","0.007993","0.057842"
"-0.020768000000000002","0.010723","0.056399"
"-0.019806999999999998","0.012719","0.05271699999999999"
"-0.020207","0.014433000000000001","0.051131"
"-0.022076","0.015823","0.049357"
"-0.026184","0.009899","0.041973"
"-0.031727","0.007898","0.038019"
"-0.030461000000000002","0.009048","0.035601999999999995"
"-0.028295999999999998","0.006528","0.025999"
"-0.027456","0.011301","0.024768000000000002"
"-0.030967","0.008234","0.027138"
"-0.032442","0.0035960000000000002","0.033121"
"-0.026719","0.009192","0.03834"
"-0.024845","0.011123000000000001","0.040184"
"-0.02331","0.012131999999999999","0.042201999999999996"
"-0.0219","0.012121999999999999","0.044088"
"-0.024021999999999998","0.012921","0.043758"
"-0.022126","0.009649","0.045328"
"-0.023","0.015781","0.04695"
"-0.025485","0.014622999999999999","0.04593"
"-0.023241","0.011606","0.040868"
"-0.021293","0.009751000000000001","0.044961"
"-0.020297","0.010951","0.0482"
"-0.020658000000000003","0.010126000000000001","0.048194"
"-0.020643","0.008018","0.047854"
"-0.019847","0.010034","0.046819"
"-0.022203","0.009164","0.048366"
"-0.018848","0.007515999999999999","0.05216799999999999"
"-0.014771000000000001","0.010408","0.058485"
"-0.010925","0.009314","0.058885"
"-0.0071200000000000005","0.005558","0.055547000000000006"
"-0.007240000000000001","0.005678","0.056079"
"-0.01008","0.008962000000000001","0.050597"
"-0.011308","0.013257","0.044353"
"-0.014191999999999998","0.013722999999999999","0.044883"
"-0.008969","0.01065","0.045724"
"-0.005534000000000001","0.014877000000000001","0.046092"
"-0.00727","0.018222","0.045143"
"-0.010194","0.017194","0.047363"
"-0.018275","0.012361","0.049609"
"-0.018076","0.012276","0.049188"
"-0.020291","0.008858","0.052028"
"-0.021105000000000002","0.011347","0.045662"
"-0.020123","0.011159","0.042858"
"-0.022846","0.020805","0.026092"
"-0.033419","0.024844","0.016915"
"-0.034384","0.029366000000000003","0.01695"
"-0.029285000000000002","0.024036000000000002","-0.003045"
"-0.022102","0.0035340000000000002","-0.020853999999999998"
"-0.024426","-0.000515","-0.018784"
"-0.025518","0.004686999999999999","-0.002222"
"-0.0035520000000000005","0.03528","-0.006809"
"-0.029387","0.017652","0.004796"
"-0.000769","0.011928","-0.022063"
"0.00264","0.005516","-0.036269"
"0.012237999999999999","0.010820999999999999","-0.028041000000000003"
"0.013733","0.020418000000000002","0.008405"
"0.014240000000000001","7.000000000000001e-06","0.047205000000000004"
"0.002282","-0.008671","0.064025"
"-0.006843000000000001","-0.032491","0.089416"
"-0.00689","-0.030695","0.103415"
"-0.011698","-0.033513999999999995","0.10910399999999999"
"-0.017803","-0.041689","0.115503"
"-0.019762000000000002","-0.051177","0.108241"
"-0.003322","-0.018902000000000002","0.11044000000000001"
"-0.029101","-0.014417","0.130669"
"-0.057790999999999995","-0.011013","0.13425399999999998"
"-0.077948","-0.013794999999999998","0.109207"
"-0.13159","0.056146","0.13393"
"-0.135022","0.0942","0.09370099999999999"
"-0.11158","0.146318","0.049638999999999996"
"-0.071269","0.142031","-0.053137000000000004"
"-0.023215","0.021702000000000003","-0.031052"
"-0.008860999999999999","-0.008318","0.007431999999999999"
"-0.052240999999999996","-0.054599","0.12871400000000002"
"-0.048201999999999995","-0.045116","0.129883"
"-0.02972","-0.014137","0.117513"
"0.0059759999999999995","0.02115","0.073518"
"0.008556999999999999","0.035282","0.044384"
"-0.002271","0.018316","0.041171"
"0.01098","0.008076","0.09396399999999999"
"-0.014178999999999999","0.005293","0.088145"
"-0.020516","0.0008699999999999999","0.07271"
"-0.017918","-0.003041","0.035712"
"-0.004843","-0.0051920000000000004","0.025901999999999998"
"0.00572","-0.0050880000000000005","0.035204"
"0.032714","0.014462000000000001","0.031806"
"0.020942","0.009715000000000001","0.032503"
"0.001811","-0.001255","0.031233999999999998"
"0.005029","-0.005222","0.028388"
"0.006287","-0.000273","0.024047"
"0.004286","0.012249","0.024390000000000002"
"-0.013374","0.025016999999999998","0.021993000000000002"
"-0.025494","-0.021108000000000002","0.028234"
"-0.03102","-0.049558","0.050517"
"-0.002963","-0.075172","0.094023"
"0.016307","-0.06260399999999999","0.067587"
"0.016562999999999998","-0.021547999999999998","0.053565999999999996"
"0.058944","0.10373800000000001","0.12057000000000001"
"0.075775","0.16516","0.092322"
"0.083469","0.117532","0.045263"
"0.033065","0.049020999999999995","-0.002656"
"0.010428","0.042218","0.009659000000000001"
"-0.0020859999999999997","0.019188","0.015304"
"0.013565","-0.039155","0.017259"
"0.019027000000000002","-0.051187","0.032898000000000004"
"0.022705","-0.049513999999999996","0.044792"
"0.048429","-0.02752","0.08831"
"0.057919000000000005","-0.012506999999999999","0.115121"
"0.059517999999999995","-0.008981","0.11590299999999999"
"0.07692","-0.004666","0.107821"
"0.09038600000000001","-0.000401","0.080419"
"0.09124199999999999","-0.005524","0.064977"
"0.069466","-0.02632","0.027707"
"0.064571","-0.013828","0.013509"
"0.06255","-0.002744","0.010154"
"0.01132","0.021490000000000002","-0.008068"
"-0.007344","0.022205000000000003","-0.01876"
"-0.002996","0.032581","-0.014606000000000001"
"-0.003668","0.034468","0.00147"
"-0.014318","0.022004","0.017478999999999998"
"-0.021421","0.015583000000000001","0.027783"
"-0.036758","-0.003834","0.038303"
"-0.00295","-0.008133","0.037485000000000004"
"0.010995999999999999","-0.004039","0.036393"
"0.040186","2e-06","0.041424"
"0.034645","0.010417000000000001","0.055636"
"0.022721","0.012534","0.051472000000000004"
"0.017131","0.003578","0.044251"
"0.020679","-0.004479","0.039479"
"0.027288999999999997","-0.005016","0.037255"
"0.051157999999999995","-0.003686","0.03729"
"0.05965","0.0062759999999999995","0.035179"
"0.065747","0.008471","0.038209"
"0.07817","0.013779","0.034793"
"0.080231","0.010481","0.036988"
