"userAcceleration.x","userAcceleration.y","userAcceleration.z"
"-0.028288999999999998","-0.0036659999999999996","0.03338"
"-0.036972000000000005","0.008211","0.002424"
"-0.032312","0.012643999999999999","0.007943"
"-0.030126999999999998","0.019814","0.010273000000000001"
"-0.024483","0.028702999999999996","-0.008559"
"-0.018596","0.036687","0.00020099999999999998"
"-0.0035039999999999997","0.0023510000000000002","0.016826"
"0.013366999999999999","-0.0026420000000000003","0.004614"
"0.017649","-0.009807","-0.006705"
"0.016568","-0.00293","-0.015621000000000001"
"-0.005335","0.001158","-0.027051"
"-0.013011000000000002","0.014884999999999999","-0.030757"
"-0.009082","0.019816","-0.033919"
"-0.011764","0.004001","-0.018141"
"-0.008855","0.00877","-0.012443000000000001"
"-0.008544","0.016707","-0.004561"
"-0.001126","0.01004","-0.004847"
"-0.003751","0.017567","0.009216"
"-0.006000999999999999","0.007459","0.004323"
"0.002798","-0.004911","-0.0024059999999999997"
"0.009927","-0.003019","-0.0045579999999999996"
"0.013269","0.012109","-0.00013700000000000002"
"0.004635","0.017958000000000002","0.009984999999999999"
"0.0035909999999999996","0.026775999999999998","0.025619"
"0.023028","0.031580000000000004","0.019144"
"0.029269999999999997","0.020599","0.024393"
"0.017811","0.00313","0.037273"
"0.004634","0.011872","0.048001999999999996"
"-0.0008460000000000001","-0.006514","0.066227"
"0.000147","-0.011664","0.077007"
"-0.000824","-0.011008","0.078151"
"-0.011566","0.0021420000000000002","0.073518"
"-0.000502","0.0021780000000000002","0.054280999999999996"
"0.0041340000000000005","0.002663","0.05413099999999999"
"0.012931","0.003786","0.049775"
"0.012151","0.020316","0.031205"
"0.012117000000000001","0.023125","0.029518"
"0.024319999999999998","0.019457","0.014743000000000001"
"0.08593300000000001","0.011379","1e-06"
"0.095336","0.014541","0.002321"
"0.090029","0.00186","0.014843"
"0.050306000000000003","-0.008275","0.047144"
"0.033097","-0.015526","0.073133"
"-0.033232","-0.017518000000000002","0.088477"
"-0.091697","-0.009167","0.083091"
"-0.11486199999999999","-0.022940000000000002","0.085762"
"-0.11437","-0.015375999999999999","0.07674700000000001"
"-0.116487","-0.006335","0.072198"
"-0.111671","0.008223000000000001","0.054644000000000005"
"-0.10583900000000002","0.00683","0.043873"
"-0.074753","0.000449","0.029887999999999998"
"-0.068875","-0.003331","0.02889"
"-0.06035700000000001","0.038691","0.005598"
"-0.071646","0.043279000000000005","-0.019546"
"-0.054678","0.036538","-0.025776"
"-0.038553","0.027472000000000003","-0.093445"
"-0.037551999999999995","0.036378","-0.130504"
"-0.026167000000000003","0.044742000000000004","-0.160162"
"-0.005344","0.038129","-0.160003"
"-0.011005","0.019775","-0.15600899999999998"
"-0.013815000000000001","-0.002566","-0.141158"
"-0.039544","-0.011072","-0.137272"
"-0.018768","-0.038678","-0.126382"
"0.000797","-0.04487","-0.12168599999999999"
"0.023459","-0.07658999999999999","-0.152526"
"0.073351","-0.06975","-0.133524"
"0.087296","-0.05745700000000001","-0.10304400000000001"
"0.019931","-0.079715","-0.076788"
"-0.087818","-0.14011600000000002","-0.020488"
"-0.058790999999999996","-0.05583","0.015106"
"-0.026001999999999997","-0.023948","0.052126"
"-0.086547","-0.015353","0.043705"
"-0.115345","-0.006187","0.019869"
"-0.129776","0.0072180000000000005","-0.024193"
"-0.10208400000000001","0.001599","-0.07720199999999999"
"-0.082091","0.004852","-0.11731"
"-0.046635","0.0475","-0.13348800000000002"
"0.008583","0.069084","-0.135023"
"0.050695","0.042533999999999995","-0.121261"
"0.067125","0.01786","-0.101625"
"0.056329","0.002908","-0.064354"
"0.050212","0.000363","-0.054515999999999995"
"0.033039","0.004686","-0.021159999999999998"
"0.008033","0.002984","0.00040199999999999996"
"-0.012466","0.002176","0.016495"
"-0.030462","0.000522","0.024412"
"-0.056042999999999996","-0.003393","0.036605"
"-0.060899","-0.028017","0.046833"
"-0.058023000000000005","-0.020055","0.044166000000000004"
"-0.045895","-0.027669","0.043153"
"-0.056565","-0.01466","0.057562999999999996"
"-0.041154","0.0051990000000000005","0.06316000000000001"
"-0.021752","0.012048","0.05701900000000001"
"-0.025325","0.030394","0.053578999999999995"
"-0.040458999999999995","0.066447","0.066571"
"-0.076843","0.07169199999999999","0.09608799999999999"
"-0.09539700000000001","0.064136","0.080602"
"-0.12233599999999999","0.020843","0.061338"
"-0.085629","-0.037543","0.050661000000000005"
"-0.03814","-0.042511","0.035453"
"0.033476","-0.009323","0.016288999999999998"
"0.071775","-0.014306000000000001","-0.00657"
"0.10255299999999999","-0.022161","-0.028082999999999997"
"0.17693499999999998","0.021089","-0.044349"
"0.176708","0.041114","-0.029868000000000002"
"0.164516","0.050436","-0.04022"
"0.11823099999999999","0.021299000000000002","-0.05996900000000001"
"0.116781","-0.023585","-0.077813"
"0.10473299999999999","-0.035498","-0.077538"
"0.086702","-0.000824","0.007161"
"0.068257","0.006911","0.030032"
"0.056398000000000004","0.011890999999999999","0.030066000000000002"
"0.044795","0.0037920000000000002","0.02528"
"0.058653","0.0006889999999999999","0.053925"
"0.06237","-0.001657","0.06112000000000001"
"0.078373","0.004933","0.030472000000000003"
"0.06526599999999999","0.017478999999999998","0.016459"
"0.062030999999999996","0.025555","0.023778999999999998"
"0.057408","0.029912","0.028170999999999998"
"0.03752","0.012079000000000001","0.023243"
"0.036412","0.005956","0.021672999999999998"
"0.047522","0.012288","0.022831"
"0.058585000000000005","0.0055119999999999995","0.019811000000000002"
"0.068677","0.001199","0.030652"
"0.06916900000000001","0.018581999999999998","0.041643"
"0.054265","0.017292","0.054687"
"0.028014999999999998","0.010447","0.062836"
"0.0019140000000000001","-0.007672","0.07256900000000001"
"0.002241","-0.015679","0.07456900000000001"
"0.0064010000000000004","-0.009179000000000001","0.065812"
"0.015304","-0.0070599999999999994","0.062842"
"0.024694999999999998","0.000593","0.047559"
"0.032688","-0.002368","0.039566000000000004"
"0.022401","0.010046","0.037153"
"0.010125","0.01314","0.040772"
"-0.015165000000000001","0.014915000000000001","0.037802999999999996"
"-0.016215","0.038695","0.041982"
"-0.01731","0.032099","0.059858"
"-0.039591","0.03947","0.075706"
"-0.04258","0.027339","0.082506"
"-0.056271","-0.0189","0.101217"
"-0.047327","-0.025845999999999997","0.11496500000000001"
"-0.020622","0.009864","0.12103399999999999"
"-0.00010800000000000001","0.021965000000000002","0.119719"
"0.022026","0.024906","0.072238"
"0.029035000000000002","0.0075829999999999995","0.038782"
"0.020861","-0.011396","0.041949"
"0.004927","-0.009272","0.03646"
"-0.031389","-0.020995","0.042601"
"-0.050332","-0.023693000000000002","0.040243"
"-0.08526900000000001","-0.001913","0.041092000000000004"
"-0.103913","0.022349","-0.013268"
"-0.10974300000000001","0.016594","-0.034366"
"-0.106323","0.004855","-0.057282000000000007"
"-0.108832","-0.018963","-0.137759"
"-0.13025699999999998","0.011234000000000001","-0.127917"
"-0.13533900000000001","0.034151","-0.125675"
"-0.126341","0.014913","-0.118557"
"-0.103881","0.008147","-0.104715"
"-0.088961","0.005644","-0.09086"
"-0.056451","-0.009787","-0.076959"
"-0.001552","-0.032667","-0.083018"
"0.011331","-0.037413999999999996","-0.090179"
"0.030116000000000004","-0.048895","-0.096215"
"0.041748","-0.047425","-0.08395599999999999"
"0.020914","-0.036946","-0.06878200000000001"
"0.006515000000000001","-0.022174","-0.040713"
"-0.023468","-0.013309","-0.029457999999999998"
"-0.041953","-0.015934999999999998","-0.022159"
"-0.060615999999999996","-0.026358","-0.020406999999999998"
"-0.067511","-0.029383","-0.027625"
"-0.0765","-0.03322","-0.027986"
"-0.07223099999999999","-0.037447","-0.019486"
"-0.06412799999999999","-0.052748","-0.009713"
"-0.047668","-0.074643","0.0077859999999999995"
"-0.02998","-0.045042","0.010467"
"-0.015034","-0.024436000000000003","0.016274"
"-0.018254","-0.008168","0.026663"
"-0.031159","0.008627","0.013952"
"-0.040772","0.015611000000000002","-0.000178"
"-0.049157","0.026251","-0.014979"
"-0.053613","0.045461","-0.049346"
"-0.054773","0.069734","-0.055924"
"-0.06437000000000001","0.060525","-0.049565"
"-0.076089","0.064524","-0.07499"
"-0.054252","0.048478","-0.078"
"-0.042379","0.017453","-0.013865"
"-0.037829","-0.005253","0.005943"
"-0.035779000000000005","-0.01242","0.00686"
"0.005083","-0.021972","-0.005027"
"0.020401","-0.028345","0.014628"
"0.018668999999999998","-0.032099","0.030075"
"0.000646","-0.031377999999999996","0.065465"
"-0.018384","-0.017099","0.073461"
"-0.026029000000000004","-0.009364","0.070744"
"-0.028673","-0.0038880000000000004","0.053065999999999995"
"-0.029166","-0.00872","0.017240000000000002"
"-0.016166","-0.001036","0.008598999999999999"
"-0.016327","0.013866","0.017871"
"-0.009816","-0.009113","0.037435"
"-0.032295","-0.0058590000000000005","0.07329"
"-0.055373","0.021532","0.069454"
"-0.041007","0.058953","0.006155"
"-0.025062","0.07533","-0.01804"
"-0.013609","0.081213","-0.039215"
"0.023896","0.016771","-0.083134"
"0.041658","-0.05525","-0.028558999999999998"
"0.05352899999999999","-0.059414","0.010608"
"0.084319","-0.04943","0.07145900000000001"
"0.109723","-0.038693","0.10665999999999999"
"0.10956700000000001","-0.0037189999999999996","0.089175"
"0.09941699999999999","0.029112","0.066229"
"0.086967","0.030406","0.028901"
"0.075375","0.055871000000000004","0.014466999999999999"
"0.021405","0.076598","-0.018486000000000002"
"-0.000212","0.06644800000000001","-0.049210000000000004"
"-0.014791","0.043358999999999995","-0.06629"
"0.008901000000000001","0.008399","-0.106923"
"0.017731999999999998","-0.035697","-0.09518"
"0.021421","-0.033022","-0.072862"
"-0.00028900000000000003","-0.020068","-0.042791"
"0.018158","-0.002494","-0.016194999999999998"
"0.042109","0.012928","-0.022112"
"0.061607","0.033813","-0.037215"
"0.10524700000000001","0.022936","-0.052114"
"0.115125","0.020109000000000002","-0.067349"
"0.132724","0.016127000000000002","-0.071931"
"0.13701300000000002","0.014584999999999999","-0.065457"
"0.116846","0.008052","-0.052223"
"0.098849","0.0040490000000000005","-0.037767"
"0.07069199999999999","0.002284","-0.0022949999999999997"
"0.063071","0.001202","-0.003558"
"0.044107","-0.005502","0.029863"
"0.036948","-0.005469","0.026652999999999996"
"0.042791","0.012793","0.037972000000000006"
"0.042973000000000004","0.023621","0.02777"
"0.03938","0.027636","0.026644"
"0.021488","0.018808000000000002","0.035338"
"-0.008253","0.013074","0.041573"
"-0.03386","0.006067","0.030291000000000002"
"-0.048718","0.024714","0.031208999999999997"
"-0.04726","0.007942","0.033957"
"-0.027295999999999997","-0.001065","0.027385000000000003"
"-0.0023350000000000003","0.0016309999999999999","0.013569"
"0.027221","0.016429","0.025209"
"0.056803","0.035151999999999996","0.049714"
"0.077448","0.011616","0.040804"
"0.055985","-0.007697","0.039471"
"0.001534","-0.0012980000000000001","0.050763"
"-0.027946","-0.006204","0.047182"
"-0.047139999999999994","-0.008947","0.043318"
"-0.046615","-0.004736","0.018337"
"-0.0304","0.008870999999999999","0.008384"
"-0.018333000000000002","0.009581000000000001","0.018948"
"-0.016013","-0.019148","-0.002785"
"-0.009818","-0.009","0.012648000000000001"
"-0.053592999999999995","-0.009708","0.097313"
"-0.072353","-0.022514","0.106708"
"-0.06442","-0.025602","0.075327"
"-0.033029","-0.016522","0.044538"
"-0.023381","0.001466","-0.008881"
"-0.024062","0.008164","-0.021858000000000002"
"-0.040838","0.006019","-0.025189"
"-0.085667","-0.006207","-0.054972"
"-0.07325599999999999","0.0048590000000000005","-0.06848"
"-0.07070599999999999","-0.0048259999999999996","-0.021087"
"-0.07308400000000001","0.000516","-0.010584999999999999"
"-0.076039","0.015072","-0.010399"
"-0.082945","0.027598","-0.009164"
"-0.07196799999999999","0.021677000000000002","-0.0054340000000000005"
"-0.06826900000000001","0.014221000000000001","-0.003213"
"-0.053689999999999995","0.003389","-0.008605"
"-0.030514","-0.004647999999999999","-0.025496"
"-0.029339999999999998","0.006152","-0.017308"
"-0.023204","-0.002805","-0.018488"
"-0.020358","-0.004985","-0.017883"
"-0.020258","0.0015279999999999998","-0.009317"
"-0.033488","-0.001527","0.017817"
"-0.033379","-0.000469","0.015684"
"-0.035312","0.008218000000000001","0.022386"
"-0.034447000000000005","-0.003682","0.016984"
"-0.041760000000000005","0.0044340000000000004","0.014158"
"-0.038732","-3.9e-05","0.016184999999999998"
"-0.025157","-0.002084","0.018949"
"-0.017061","0.004834000000000001","0.013369999999999998"
"-0.007669","0.00928","0.008038"
"0.003327","0.010108","0.0016940000000000002"
"0.002708","0.0070290000000000005","-0.002041"
"0.006587000000000001","0.011536","0.000638"
"0.008406","0.017866","0.006953"
"0.0031","0.016653","0.010071"
"0.0012050000000000001","0.017929","0.004436"
"0.013924","0.01547","0.000242"
"0.021102000000000003","0.002972","-0.004481000000000001"
"0.019203","-0.0017230000000000001","-0.002013"
"0.022437000000000002","-0.001251","0.005947999999999999"
"0.020865","0.0010539999999999998","0.016506"
"0.019903999999999998","0.006518","0.016442"
"0.018054","0.0068379999999999995","0.012381"
"0.008567","0.000263","0.021254"
"-0.009226999999999999","0.000181","0.024646"
"-0.0067480000000000005","-0.009313","0.032791"
"-0.012514","0.001823","0.023515"
"-0.017606999999999998","0.001314","0.015805"
"-0.020141","-0.001745","0.015875"
"-0.023953","0.00233","0.020808"
"-0.019625999999999998","0.008163","0.023555"
"-0.021074000000000002","0.018466","0.039467"
"-0.007238","0.002337","0.025241"
"-0.003831","0.017609","0.012019"
"-0.005711","-0.016791999999999998","0.013694999999999999"
"-0.012034999999999999","0.009062","-0.0026190000000000002"
"0.008820999999999999","0.03135","-0.007854"
"0.012023","-0.001471","-0.008189"
"0.009761","0.008898999999999999","-0.015563999999999998"
"0.0085","0.012604","-0.00335"
"0.009031","0.011516","-0.000668"
"0.004259000000000001","0.008273","0.003315"
"0.003667","0.008543","-0.0050149999999999995"
"0.006772","0.00609","0.004593"
"0.008775","0.011408","0.0065840000000000004"
"0.001637","-0.003468","0.021294"
"0.0030210000000000002","0.010249","0.021671"
"0.004321","0.008828","0.015875999999999998"
"0.000175","0.016274","0.012551999999999999"
"-0.005101","0.001795","0.018067"
"-0.010066","-0.00335","0.024983"
"-0.013859","0.001204","0.031723"
"-0.011506","0.013005000000000001","0.029327"
"-0.005543","0.007937999999999999","0.024073"
"-0.0030239999999999998","0.00282","0.024502"
"-0.001227","-0.004718","0.018358000000000003"
"-0.000614","-0.002334","0.021523"
"-0.003944","0.0025960000000000002","0.019983"
"-0.009637999999999999","0.001222","0.018994"
"-0.013691","0.002025","0.01318"
"-0.009651","0.0033829999999999997","0.009302"
"-0.004224","0.008955","0.00909"
"-0.004737","0.006684999999999999","0.014411000000000002"
"-0.002746","0.005949","0.011641"
"0.000897","0.006569","0.007731999999999999"
"0.005246","0.005331","0.010876"
"0.013862000000000001","0.0030629999999999998","0.003078"
"0.01779","0.007573000000000001","-0.000781"
"0.007875","0.004796","-0.0023940000000000003"
"0.002519","0.002669","-0.004664"
"0.004748","0.006703","-0.0036090000000000002"
"0.004101","0.004831","0.000799"
"0.004733","0.004632","0.0035479999999999995"
"0.001564","0.002202","0.012691"
"0.0005110000000000001","0.003404","0.017263"
"-0.0014089999999999999","0.003821","0.020178"
"-0.000766","0.003083","0.020801"
"-0.0026149999999999997","0.0044210000000000005","0.019573"
"9.6e-05","0.004017","0.017787999999999998"
"0.009165000000000001","0.002196","0.019671"
"0.00556","0.002788","0.023976"
"0.003775","0.005726","0.026704000000000002"
"0.006794","0.003841","0.022521"
"0.006074","-0.002532","0.018932"
"0.006083","-0.0051140000000000005","0.020516999999999997"
"0.002457","-0.004905","0.017912"
"0.0015810000000000002","0.00203","0.018172"
"-0.00617","0.008756","0.019551"
"-0.02429","0.00702","0.029348000000000003"
"-0.02565","0.0033770000000000002","0.033868999999999996"
"-0.02494","0.008620000000000001","0.043961"
"-0.0149","0.011777","0.029521"
"-0.008403","0.011168","0.019538999999999997"
"-0.002982","0.0067480000000000005","0.015722999999999997"
"0.009534","-0.000772","0.011531"
"0.00813","0.001684","0.008387"
"0.004973","0.009902","0.00683"
"0.014411000000000002","0.01027","0.006261999999999999"
"0.016325","0.001153","-0.010556999999999999"
"0.01599","-0.002271","-0.045182"
"0.029845999999999998","0.006456","-0.035599"
"0.008581","0.010408","-0.0164"
"-0.007504","0.009686","-0.008456"
"-0.024293000000000002","-0.003029","0.006074"
"-0.012067","-0.003093","-0.0033090000000000003"
"-0.011613","0.008734","0.005584"
"-0.045408","0.021994999999999997","0.048088"
"-0.05455","0.018887","0.06375399999999999"
"-0.075235","-0.006923","0.07761900000000001"
"-0.054049","-0.031872000000000004","0.06585"
"-0.0077269999999999995","-0.007036","0.042689"
"0.02669","0.013772","0.018904"
"0.03493","0.020565","0.013722999999999999"
"0.021945","0.013155000000000002","0.015913999999999998"
"0.011845","0.0032409999999999995","0.016836"
"0.005097","0.000753","0.019275999999999998"
"0.0072569999999999996","0.007581","0.0062829999999999995"
"0.008668","0.003488","0.003863"
"0.016487","0.007259999999999999","0.002297"
"0.0018899999999999998","0.003022","0.024752"
"-0.012334999999999999","-0.00282","0.0337"
"-0.01125","0.00023999999999999998","0.036892"
"-0.005009","-0.001644","0.02617"
"-0.004644","0.0017670000000000001","0.023846"
"0.002582","0.0014320000000000001","0.022455000000000003"
"0.010888","0.007866","0.018153"
"0.013645","0.0070019999999999995","0.014361"
"0.016488","0.005952000000000001","0.014896000000000001"
"0.013658000000000002","0.0047740000000000005","0.016384"
"0.011706","0.001301","0.016439"
"0.009065","-0.004323","0.020097"
"0.008661","-0.0061649999999999995","0.021325"
"0.004226","-0.001019","0.022082"
"0.001114","-0.0029059999999999997","0.023622"
"-0.0011560000000000001","-0.002825","0.023173"
"-0.006412","0.002859","0.019273"
"-0.00558","0.006364","0.013811000000000002"
"-0.007998","0.007948","0.01619"
"-0.008948999999999999","0.011197","0.008648999999999999"
"-0.009569","0.014313999999999999","0.006528"
"-0.011955","0.013893","0.003704"
"-0.012962999999999999","0.019166","-0.003871"
"-0.005841","0.012785","-0.006224"
"-0.006912000000000001","0.009503","-0.007741"
"-0.009653","0.009595000000000001","-0.0032920000000000002"
"-0.004562","0.009719","-0.0016989999999999998"
"-0.004006","0.005886","0.004242"
"-0.003963","0.010531","0.007654"
"-0.00058","0.008245","0.014085"
"-0.008739","-0.005618","0.007090000000000001"
"0.003078","0.020887","0.006455"
"-0.0035909999999999996","-0.003939","0.027402999999999997"
"-0.002111","-0.00627","0.027029"
"-0.009492","-0.008621","0.029279000000000003"
"-0.0047729999999999995","-0.005149","0.031105"
"-0.00434","-0.007087","0.033839999999999995"
"-0.005875","-0.005147","0.03224"
"-0.0027370000000000003","-0.00274","0.022167"
"-0.001167","0.005082","0.013059000000000001"
"0.0024289999999999997","0.009984999999999999","0.005171"
"0.008436","0.006615","-0.000109"
"0.002096","0.008916","-0.001859"
"0.002098","0.00506","-0.0014529999999999999"
"0.007891","0.010329000000000001","-0.00026000000000000003"
"0.008777","0.011068999999999999","-0.003032"
"0.002999","0.01228","-0.005495"
"0.0006889999999999999","0.006673999999999999","-0.007873"
"0.002131","0.006811","-0.012405"
"0.006431","0.014002","-0.011441"
"0.007468000000000001","0.02093","-0.008592"
"0.001852","0.015103","-0.005682"
"-0.006014","0.0051990000000000005","-0.00133"
"-0.011023999999999999","0.0021609999999999997","0.0034950000000000003"
"-0.020118","0.005645000000000001","0.007797"
"-0.026387","0.006121","0.010231"
"-0.013302000000000001","0.014780000000000001","0.018088"
"-0.018497","0.01316","0.003783"
"-0.018106","-0.0044399999999999995","0.006097999999999999"
"-0.006848000000000001","0.008818000000000001","0.002593"
"-0.003032","0.005188","-0.005906000000000001"
"0.013321000000000001","-0.0010220000000000001","-0.031296"
"0.049869","0.01746","-0.016191999999999998"
"0.062934","0.03767","-0.012314"
"0.052824","-0.0076359999999999996","-0.026404"
"0.042332","-0.009356999999999999","-0.026570999999999997"
"0.030952999999999998","-0.006045","-0.022046"
"0.009162","0.002219","-0.014318"
"-0.010490000000000001","-0.000705","-0.013346"
"-0.018286","-0.0030239999999999998","-0.013327"
"-0.014322999999999999","0.0035689999999999997","0.009106999999999999"
"-0.004987","0.004832","0.018146000000000002"
"-0.012176000000000001","0.008429","0.014197"
"-0.011898","-0.0009289999999999999","-0.004188"
"-0.01885","0.000859","0.008103"
"0.008565000000000001","-0.0208","-0.017252"
"-0.017349","0.023816","0.012709999999999999"
"-0.007047","0.007093","0.026073000000000002"
"-0.006874","-0.086924","-0.05607"
"0.019316999999999997","0.020138","0.007818"
"0.011134","0.024187","0.018292"
"-0.017952000000000003","-0.054698000000000004","0.071082"
"-0.022178","0.012740999999999999","0.03142"
"-0.028704","-0.013739","0.051298"
"0.05055","0.344378","-0.036392"
"-0.010924","-0.159649","0.12320999999999999"
"-0.035833","-0.07470299999999999","0.013066"
"-0.013768","0.047575","0.059493"
"-0.004967","0.02231","0.060538999999999996"
"-0.006328","-0.013590000000000001","0.050288"
"0.036407999999999996","-0.003454","-0.020165"
"-0.0025570000000000002","0.004039","0.069458"
"-0.012062999999999999","0.036219","0.013134999999999999"
"-0.013708000000000001","-0.023946000000000002","0.048889999999999996"
"-0.000868","-0.005220000000000001","0.025497"
"-0.012351","0.002343","0.07462"
"-0.01158","-0.013451","0.029876999999999997"
"0.015053","0.006469","3.1e-05"
"0.013019999999999999","-0.015013999999999998","0.053070000000000006"
"0.010435","0.019465","0.059040999999999996"
"0.020921000000000002","0.042336","0.073425"
"0.023697","-0.032688999999999996","-0.002535"
"0.004564","-0.012988999999999999","-0.019534"
"0.015359000000000001","0.018591","0.005632"
"-0.00035800000000000003","-0.000552","0.054616"
"-0.018418","0.000567","0.063327"
"0.000341","0.015761","0.035563"
"0.018264","-0.0019199999999999998","0.041781"
"0.004147","0.013063","0.04688"
"-0.023477","0.014936000000000001","0.015788999999999997"
"-0.028439","-0.018951","0.033425"
"-0.024736","0.010348","0.025944"
"-0.010434","-0.002538","0.026006"
"0.015135","-0.021959","0.015681999999999998"
"0.025450999999999998","-0.004815","0.00488"
"-0.006022","-0.015668","0.007698999999999999"
"-0.014872999999999999","0.017056","0.020816"
"-0.0042","0.05753","0.023259000000000002"
"0.006619","-0.015951","0.016044"
"-0.026135000000000002","-0.038278","0.041786000000000004"
"-0.002194","0.050845","0.05867000000000001"
"0.025109","0.022173","0.05351"
"-0.0017739999999999998","-0.029419","0.01043"
"-0.043851","0.00015","0.027357999999999997"
"-0.00367","0.016975","0.045706000000000004"
"-0.003906","0.017332","0.085609"
"-0.001644","-0.009052","-0.017069"
"-0.026675","-0.0067659999999999994","0.009118000000000001"
"0.003351","-0.012775","-0.013517"
"0.031142000000000003","0.004850999999999999","0.010685"
"0.023202","0.02054","0.020912"
"0.008646","0.014823","0.041655000000000005"
"0.0012640000000000001","-0.003732","0.01778"
"-0.008222","-0.012481","0.018161"
"-0.008727","-0.000625","0.0023870000000000002"
"-0.033323","0.03588","0.013358000000000002"
"-0.023023","-0.019975","0.015745"
"-0.018867","-0.014936000000000001","0.006298"
"-0.034345","0.022993","-0.024206000000000002"
"-0.008662999999999999","-0.017693","-0.031895"
"-0.008183","0.040894","-0.016663999999999998"
"0.008997","0.014986000000000001","-0.016219"
"0.00733","-0.001257","-0.008846"
"-0.0063549999999999995","0.015934999999999998","-0.0032270000000000003"
"-0.000859","-0.032016","0.020130000000000002"
"0.004246","-0.005441","0.017577000000000002"
"-0.014398","0.132528","0.047361"
"-0.034106","-0.05359","0.045880000000000004"
"0.00837","-0.06585099999999999","0.034867"
"0.037473","-0.031744999999999995","-0.006745"
"0.036856","0.00615","-0.0039049999999999996"
"0.007047","0.125431","0.042399"
"-0.022663","-0.081441","0.0019219999999999999"
"-0.0039700000000000004","-0.027963","-0.007012999999999999"
"0.038812","0.022986000000000003","0.000452"
"0.018009","-0.002365","0.006595999999999999"
"-0.002752","0.010978","0.015983"
"-0.008038","-0.004215999999999999","0.020493"
"-0.010965","0.009141","0.006534000000000001"
"0.0041259999999999995","-0.0010019999999999999","0.024376"
"-0.006942","0.0058920000000000005","0.030888"
"0.004318","0.011724","0.014421000000000002"
"-0.01178","0.029675999999999998","0.013265"
"0.001125","-0.005261999999999999","0.015786"
"0.000682","0.002861","0.016239"
"0.002932","0.009479000000000001","0.025103"
"-0.006847","0.0041670000000000006","0.019577"
"-0.021533","0.010849","0.031557"
"-0.020313","0.012037","0.033868999999999996"
"-0.017096","-0.011103","0.039041"
"-0.017719","-0.011323","0.063832"
"-0.002893","-0.000193","0.060830999999999996"
"0.007613","0.006239","0.03928"
"0.009178","0.009411","0.023019"
"-0.003571","0.001201","0.023933000000000003"
"-0.001121","0.011890000000000001","0.035531"
"-0.001575","0.009396999999999999","0.039671"
"-0.005692","0.003589","0.036973"
"-0.001072","0.003563","0.033902"
"0.00428","0.000375","0.030231"
"0.005451","0.005632","0.018007"
"0.008328","0.012369","0.012379000000000001"
"0.013163","0.006732999999999999","0.018948"
"0.014474","0.0018329999999999998","0.029388"
"0.011625","0.0017079999999999999","0.022441"
"0.011545","0.0018679999999999999","0.022278"
"0.00747","0.000715","0.027110000000000002"
"-0.004067","0.0011070000000000001","0.034051"
"-0.015898","-0.00036","0.03758"
"-0.019348","-0.004344","0.042476"
"-0.017343","-0.009245999999999999","0.048904"
"-0.005052","-0.005875","0.043758"
"-0.005318","-0.0038420000000000004","0.03676"
"-0.009987000000000001","0.006631999999999999","0.022281"
"-0.007278","0.011406999999999999","0.019586000000000003"
"-0.00451","0.010692","0.025128"
"0.000709","0.010824","0.019126"
"-0.00315","0.010814","0.021195"
"-0.002884","0.005682","0.013513999999999998"
"-0.000362","0.005902","0.011666"
"0.003274","0.004568","0.007956"
"0.004686999999999999","0.008298999999999999","0.013206"
"0.005109000000000001","0.013015","0.011704"
"0.002137","0.008195000000000001","0.011343"
"0.004636","0.0062840000000000005","0.014987"
"0.0033420000000000004","0.008076","0.013028"
"0.003203","-0.002438","0.030162"
"0.001429","-0.002079","0.040808"
"-0.0023940000000000003","-0.002748","0.042506999999999996"
"0.0008039999999999999","-0.005497999999999999","0.043577"
"0.004659","-0.005412","0.0465"
"0.0030960000000000002","5e-05","0.034615"
"0.0050100000000000006","0.003817","0.028952"
"-9.4e-05","0.000684","0.024981"
"-0.0016309999999999999","0.00548","0.018351"
"-0.001696","0.012871","0.013799"
"-0.002909","0.008579","0.012095"
"-0.004686999999999999","0.009659000000000001","0.009014"
"-0.004642","0.006559000000000001","0.012701"
"-0.004628","0.005777","0.016168000000000002"
"-0.001616","0.00504","0.017305"
"-0.001738","0.001462","0.016581"
"-0.0006490000000000001","0.001832","0.023366"
"0.002989","0.004555","0.026045"
"0.002651","0.001761","0.024883000000000002"
"0.001685","0.001292","0.026933"
"-5.9999999999999995e-05","0.00243","0.029292000000000002"
"0.0001","0.002315","0.030306"
"0.0007599999999999999","0.007108","0.023584"
"0.001363","0.0056229999999999995","0.017717"
"0.001302","0.003192","0.016483"
"0.002055","0.005103","0.016727000000000002"
"0.002855","0.004998","0.023705"
"0.000458","0.003989","0.025779000000000003"
"-0.000468","-0.00045700000000000005","0.026869999999999998"
"0.00159","0.002682","0.021047999999999997"
"0.004388","0.00381","0.016934"
"0.003425","0.00271","0.022287"
"0.0026149999999999997","0.006644","0.022037"
"0.003599","0.0075569999999999995","0.020978"
"0.003406","0.003175","0.024863"
"-0.001185","0.001295","0.028437"
"-0.002931","-0.00428","0.030882"
"-0.00011499999999999999","-0.003995","0.029463"
"0.001893","0.0069","0.0224"
"-0.001743","0.006568000000000001","0.025279"
"-0.0009029999999999999","0.003643","0.026299"
"0.0019579999999999997","0.004425","0.027114999999999997"
"0.002798","0.003812","0.024880000000000003"
"0.0010710000000000001","0.0053939999999999995","0.022552000000000003"
"-0.001086","0.004731","0.022883"
"-0.001075","0.0035060000000000004","0.026487"
"-0.0014880000000000002","0.0017329999999999997","0.026842"
"0.000322","0.003167","0.029511000000000003"
"-0.000865","0.003698","0.030592"
"-0.0018170000000000003","0.004169","0.031909"
"-0.001493","0.0019379999999999998","0.028451"
"-0.003721","0.002941","0.029731999999999998"
"-0.002868","0.003624","0.028043000000000002"
"-0.003168","0.001731","0.031844"
"-0.000505","0.0021420000000000002","0.030358999999999997"
"-0.000576","0.005743","0.032431"
"-0.001628","0.002065","0.028543000000000002"
"-0.000618","0.001286","0.025383000000000003"
"0.001483","0.001882","0.02505"
"0.0039689999999999994","0.007481999999999999","0.026443"
"0.001179","0.003693","0.026889"
"-0.001102","0.004162","0.027241"
"-0.000103","0.003244","0.026180000000000002"
"0.001046","0.003638","0.027497000000000004"
"0.001979","0.0018059999999999999","0.026091000000000003"
"0.000139","0.001744","0.028399"
"0.001913","0.0027949999999999997","0.028477999999999996"
"-0.000145","0.0073230000000000005","0.026881"
"-0.0017239999999999998","0.000529","0.03337"
"0.0019489999999999998","0.003904","0.033173"
"0.000394","0.002032","0.032609"
"-0.00155","-0.000127","0.031422000000000005"
"0.0042439999999999995","0.00243","0.023895"
"0.003662","0.001108","0.021414"
"0.003382","0.002226","0.02642"
"0.002436","0.007384","0.026542000000000003"
"0.0012490000000000001","0.007306","0.024575"
"0.002102","0.003539","0.023121"
"0.0009689999999999999","-0.000181","0.02222"
"0.002135","-0.000362","0.024616"
"0.00082","0.0068379999999999995","0.028294999999999997"
"0.0016300000000000002","0.004273","0.028245999999999997"
"-0.003357","0.00494","0.028406"
"-0.002493","0.005790999999999999","0.033863"
"-0.001323","0.00015800000000000002","0.030524000000000003"
"-0.0033420000000000004","-0.0010949999999999998","0.027397"
"-0.001905","0.005497999999999999","0.027016000000000002"
"0.000807","0.00344","0.025363999999999998"
"1.4000000000000001e-05","0.002068","0.026650999999999998"
"0.005294","0.006038","0.024117"
"0.006241","0.0041140000000000005","0.023923"
"0.004043","0.00231","0.027572000000000003"
"0.0036049999999999997","0.004748","0.028241000000000002"
"0.0037479999999999996","0.006862999999999999","0.027692"
"0.003083","0.003452","0.027884"
"0.00303","-0.0013310000000000002","0.03216"
"0.003332","0.002665","0.030652"
"0.0030239999999999998","0.004634","0.029061"
"0.0027660000000000002","0.003658","0.02955"
"-0.000167","0.003365","0.027777999999999997"
"0.0038280000000000002","-0.0007740000000000001","0.031513"
"0.002315","0.001398","0.030732"
"0.0014730000000000001","0.007095000000000001","0.029089"
"-0.003988","0.0010019999999999999","0.031217"
"-0.0009119999999999999","0.002496","0.035385"
"0.002112","-0.0016530000000000002","0.036675"
"0.001972","-0.0034729999999999995","0.031592"
"0.004654","-0.0021809999999999998","0.025206"
"0.002104","0.004327","0.028022000000000002"
"-0.002675","0.008942","0.026927999999999997"
"-0.000389","0.007437999999999999","0.028431"
"-0.000852","0.009274","0.02947"
"-0.0016469999999999998","0.004734","0.032753"
"-0.000641","-2e-06","0.028102"
"0.00149","0.003088","0.02694"
"0.002102","0.007461","0.027461000000000003"
"0.003547","0.005318","0.031613"
"-0.0015279999999999998","0.0018449999999999999","0.027847000000000004"
"0.003002","0.001178","0.026875"
"0.004594","0.005779","0.033541"
"0.0016510000000000001","0.003071","0.031193000000000002"
"0.002449","0.00314","0.028323"
"0.002534","0.004994","0.029885000000000002"
"0.003857","0.001279","0.028433"
"0.004628","0.001271","0.029781000000000002"
"0.003827","0.007017","0.026717"
"0.003633","0.004294","0.030251999999999998"
"0.0039840000000000006","0.00157","0.031749"
"0.005391","0.001348","0.033023000000000004"
"0.0016300000000000002","0.002955","0.032094"
"0.000901","-3e-06","0.027418"
"0.0008439999999999999","0.001573","0.026614999999999996"
"0.000786","0.000927","0.025259"
"0.001513","0.003182","0.025093"
"0.001271","0.004309","0.026358"
"0.0027129999999999997","0.008196","0.021436"
"0.001129","0.011913","0.020263999999999997"
"0.002393","0.003423","0.022112"
"0.0022670000000000004","0.00134","0.031855"
"-0.000148","0.004185","0.032843000000000004"
"0.002722","-0.0010429999999999999","0.032770999999999995"
"0.002913","-0.002134","0.03267"
"0.004427","0.0008529999999999999","0.033287"
"0.005461","0.0019649999999999997","0.030964999999999996"
"0.005752","0.001898","0.031443"
"0.005883","0.005797999999999999","0.035436"
"0.004965","0.004097","0.03511"
"0.0054659999999999995","0.002676","0.035883"
"0.003145","-0.000375","0.038279"
"0.003945000000000001","0.001105","0.029712"
"0.005684000000000001","0.005929","0.021204"
"0.005328","0.006375","0.017908"
"0.004607","0.0059689999999999995","0.021985"
"0.004235","0.008248","0.018822"
"0.002068","0.006268","0.024166"
"0.0010199999999999999","0.007765","0.025292"
"0.000377","0.00534","0.025757"
"-0.003927","0.008027","0.026202999999999997"
"-0.003979","0.001835","0.026374"
"-0.005046","0.000207","0.031588"
"-0.00476","0.005309","0.030322"
"0.000831","-0.0017350000000000002","0.02915"
"-9e-06","0.0050880000000000005","0.029688"
"0.002583","0.00784","0.030583"
"0.0015810000000000002","0.006499","0.03057"
"0.00075","0.003721","0.031247000000000004"
"0.000681","0.000974","0.028105"
"0.002543","0.001615","0.029894999999999998"
"0.003164","0.00349","0.027759"
"0.001343","0.007442","0.026996"
"0.0033619999999999995","0.008161","0.027750999999999998"
"0.0041140000000000005","0.010145","0.027912"
"0.006929","0.004376","0.036363"
"0.0058590000000000005","0.000968","0.038689"
"0.006138","-0.001936","0.038488999999999995"
"0.002926","-0.003633","0.041019"
"0.003946","-0.001986","0.03901"
"0.005242","-0.002809","0.040144"
"0.004651","0.003144","0.033829000000000005"
"0.005235","0.005847","0.027783"
"0.004968","0.010808","0.025691000000000002"
"0.003411","0.01125","0.022507"
"0.0033049999999999998","0.006028","0.025856"
"0.0014939999999999999","0.0055780000000000005","0.026491000000000004"
"0.001005","0.0056159999999999995","0.027372000000000004"
"0.003386","0.002538","0.029298"
"0.0037990000000000003","0.00027","0.03246"
"0.004242","0.004384000000000001","0.032989"
"0.0042710000000000005","0.0074329999999999995","0.025761000000000003"
"0.001727","0.00339","0.024174"
"0.003575","-0.0008359999999999999","0.029449"
"0.0037990000000000003","-0.00372","0.033408"
"0.004484","0.00145","0.028804000000000003"
"0.001498","0.0077150000000000005","0.026387"
"0.003353","0.010209000000000001","0.024753999999999998"
"-0.000822","0.005933","0.018515"
"0.000181","-0.0025210000000000002","0.025555"
"0.004325","0.0033729999999999997","0.02837"
"0.004989","7.8e-05","0.032050999999999996"
"0.004171","0.004898","0.032389999999999995"
"-0.000463","0.004543999999999999","0.029427999999999996"
"0.0012460000000000001","0.0013830000000000001","0.022517"
"-0.001366","0.006342","0.023199"
"0.001084","0.0029100000000000003","0.020404"
"0.0026550000000000002","0.001369","0.019835"
"0.002691","0.0053170000000000005","0.021747"
"0.000152","0.011614","0.025782"
"0.001679","0.010634000000000001","0.025852999999999998"
"-2.6000000000000002e-05","0.00343","0.026823000000000003"
"0.000601","0.005903","0.026631000000000002"
"0.000286","0.001831","0.02781"
"0.0071400000000000005","-0.002663","0.022871000000000002"
"0.008365000000000001","-0.001755","0.022557"
"0.00773","0.0029649999999999998","0.02302"
"0.005307","0.006248","0.024052"
"0.0063939999999999995","0.010292","0.023996"
"0.008584","0.01234","0.023835"
"0.007788","-0.000168","0.021012"
"0.008005","-0.000162","0.021188"
"0.010034999999999999","0.003462","0.023479"
"0.009446","0.001577","0.030987999999999998"
"0.009901","0.004497999999999999","0.032219"
"0.008187999999999999","0.0031309999999999997","0.032679"
"0.0062369999999999995","0.000557","0.025662"
"0.007039","0.004226","0.026126999999999997"
"0.005882","0.0053490000000000005","0.027737"
"0.00067","0.006912000000000001","0.02529"
"-0.002797","0.009953","0.025187"
"-0.005581","0.009454","0.024741"
"-0.004809000000000001","0.009566","0.026899"
"-0.006834000000000001","0.005576","0.028832999999999998"
"-0.004719","0.005447","0.0279"
"-0.00577","0.004511","0.02847"
"-0.004489","0.006273","0.023053999999999998"
"0.0010810000000000001","0.0060810000000000005","0.030273"
"-0.0016170000000000002","0.004603","0.028013999999999997"
"-0.002066","0.00566","0.033065"
"0.003414","0.0022010000000000003","0.031868"
"0.0008900000000000001","0.0033179999999999998","0.029519"
"0.002876","-0.003971","0.035399"
"0.0020800000000000003","-0.005072","0.032552"
"0.001315","6.7e-05","0.031652"
"0.006693999999999999","0.013055","0.030841000000000004"
"0.005535","0.011564","0.025654000000000003"
"0.0037630000000000003","0.0067280000000000005","0.026441000000000003"
"0.004918","0.00247","0.027729000000000004"
"0.0073019999999999995","-0.001759","0.029320999999999996"
"0.005273","-0.001614","0.03163"
"0.004941","0.00303","0.030343000000000002"
"0.006398","0.0023239999999999997","0.032843000000000004"
"0.0067599999999999995","0.001928","0.034026"
"0.006207","0.0033950000000000004","0.031623000000000005"
"0.0031420000000000003","0.004936","0.024991"
"0.002744","0.004308","0.025428"
"0.0008529999999999999","0.005951","0.025914"
"0.0011949999999999999","0.004452","0.027132"
"0.000794","0.003959000000000001","0.026929"
"0.003489","0.0027530000000000002","0.029189999999999997"
"0.003392","0.009133","0.029602999999999997"
"0.003279","0.0045119999999999995","0.026438999999999997"
"0.005102000000000001","0.004149","0.02501"
"0.009297","-0.007422","0.027038999999999997"
"0.010933","-0.005365999999999999","0.029186"
"0.006964","0.021004","0.041013"
"-0.00183","0.038237","0.023981"
"-0.009584","0.056673","-0.006490999999999999"
"-0.0018329999999999998","0.015976","-0.007298999999999999"
"0.004964","-0.024671000000000002","0.013866999999999999"
"0.009219","-0.033232","0.031014999999999997"
"0.007679999999999999","-0.023824","0.03282"
"-0.0040490000000000005","-0.012172","0.016994"
"-0.010892","-0.011683","0.022524000000000002"
"-0.004517","-0.005901","0.037913999999999996"
"0.001784","-0.008286","0.056308000000000004"
"0.00143","0.006365999999999999","0.058477999999999995"
"-0.0072840000000000005","0.016155000000000003","0.049164"
"-0.008089","0.017603999999999998","0.034710000000000005"
"-0.002372","0.014262","0.016968"
"-3.4e-05","0.011836","0.0009880000000000002"
"0.003892","0.012376","-0.002843"
"0.004005","0.008836","0.015447"
"0.011901","0.0005769999999999999","0.021484"
"0.009833","-0.002287","0.027752"
"0.003571","0.00103","0.025606999999999998"
"-0.003221","0.004186","0.028486"
"-0.006934","0.00116","0.039394"
"-0.012416","-0.003016","0.044077"
"-0.012754000000000001","-0.001116","0.041293"
"-0.005639","0.002919","0.032438"
"-0.003557","0.00778","0.027815"
"-0.0012490000000000001","0.008356","0.028376"
"-0.001902","0.0075450000000000005","0.025144"
"-0.00221","0.008107","0.025555"
"-0.0018449999999999999","0.0035479999999999995","0.026347000000000002"
"7.000000000000001e-06","-0.002672","0.022453"
"0.005933","0.003396","0.015250999999999999"
"0.014813999999999999","0.008397","0.011168"
"0.015267","0.01198","0.009056999999999999"
"0.013911000000000001","0.008955","0.010332"
"0.014305000000000002","0.00785","0.012473"
"0.010019","0.0029980000000000002","0.012719"
"0.004909","-0.0010539999999999998","0.01445"
"0.003515","-0.000893","0.023594"
"0.0035759999999999998","-0.00133","0.030851"
"0.008916","-0.001076","0.05128200000000001"
"0.007814","0.004419","0.048366"
"0.0008609999999999999","0.00195","0.035938"
"0.0018559999999999998","0.0016129999999999999","0.027204000000000002"
"0.000667","0.000878","0.025623000000000003"
"0.00010700000000000001","0.0064","0.024383000000000002"
"-0.00047400000000000003","0.005468","0.023119999999999998"
"-0.000953","0.00307","0.022209"
"-0.000298","0.004118999999999999","0.020849"
"-0.0013289999999999999","0.004721","0.018337"
"-0.002572","0.007301","0.022625"
"-0.004681","0.005335","0.023653999999999998"
"-0.003511","0.003629","0.025745"
"-0.002947","0.003517","0.029502999999999998"
"-0.002574","0.0033179999999999998","0.034227999999999995"
"-0.002841","0.0017920000000000002","0.033405000000000004"
"-0.003111","0.002527","0.031232999999999997"
"-0.003462","0.006405","0.029020999999999998"
"-0.0035299999999999997","0.005343","0.03038"
"-0.00331","0.002711","0.032093"
"-0.003293","0.005723","0.028720999999999997"
"-0.002587","0.003314","0.029633"
"-0.001186","0.002412","0.032161"
"-0.0017800000000000001","0.007279000000000001","0.031772"
"-1.3000000000000001e-05","0.00386","0.033987"
"-0.0012050000000000001","0.003392","0.034201999999999996"
"0.0032770000000000004","0.004911","0.029365"
"0.002867","0.0040939999999999995","0.028531"
"0.002709","0.003539","0.027824"
"0.002165","0.003059","0.027566000000000004"
"0.0039840000000000006","0.003276","0.026736000000000003"
"0.0037689999999999998","-0.000493","0.027578"
"-5.2000000000000004e-05","0.000266","0.025236"
"0.00044400000000000006","0.00014099999999999998","0.028010000000000004"
"0.003803","-0.004882","0.032451999999999995"
"0.0031309999999999997","0.0041329999999999995","0.036949"
"0.006096","-0.001104","0.034555"
"0.0061189999999999994","0.002581","0.035799"
"0.009773","0.008449","0.035923000000000004"
"0.007551","0.0061719999999999995","0.034575"
"0.006353","0.004264","0.035828"
"0.005723","0.0029690000000000003","0.035617"
"0.011362","0.0038399999999999997","0.027295999999999997"
"0.015065","0.002898","0.024869"
"0.016263999999999997","0.002493","0.025084"
"0.017353","0.003764","0.025355000000000003"
"0.017571","0.007854","0.026548000000000002"
"0.023582","0.00953","0.024565"
"0.024238","0.00594","0.025074000000000003"
"0.026781","0.009124","0.026737999999999998"
"0.031419","0.013755000000000002","0.031081"
"0.029352","0.012415","0.03744"
"0.029248000000000003","0.004726","0.035808"
"0.034352999999999995","0.003725","0.038232999999999996"
"0.03622","-0.0043950000000000005","0.046592"
"0.038299","-0.004268","0.046629000000000004"
"0.040737999999999996","-0.008698000000000001","0.045745999999999995"
"0.028508","0.002328","0.031938"
"0.026856","0.000297","0.025329"
"0.017766999999999998","0.003478","0.022628"
"0.005185","-0.000425","0.01305"
"-0.001963","-0.003109","0.017578"
"-0.007141","0.000953","0.014542"
"-0.015316","0.000177","0.013330000000000002"
"-0.012245","-0.000661","0.008647"
"-0.012798","0.000315","0.008439"
"-0.0068390000000000005","0.008237000000000001","0.010277"
"-0.0068260000000000005","0.003774","0.009434999999999999"
"-0.005367","0.001508","0.008849"
"-0.002221","0.003311","0.016529"
"0.000778","0.002223","0.021927000000000002"
"-0.035773","0.007254000000000001","0.013548"
"-0.046615","0.011067","0.0142"
"-0.036348","0.011682","0.023816999999999998"
"-0.053826","0.014759","0.015507"
"-0.05494500000000001","0.009776","0.014842"
"-0.052815999999999995","0.003222","0.015862"
"-0.041424","0.000557","0.016632"
"-0.03505","0.003346","0.015906"
"-0.031191000000000003","0.002999","0.018165999999999998"
"-0.025836","0.008369","0.014013999999999999"
"-0.020249","0.008457","0.014591"
"-0.017758000000000003","0.003304","0.017254"
"-0.01257","0.004753","0.015924"
"-0.012232","0.0036729999999999996","0.012865000000000001"
"-0.016729","0.004679","0.017013"
"-0.017643","0.0071189999999999995","0.018537"
"-0.019651","0.0020210000000000002","0.020945"
"-0.021681","0.004444","0.01615"
"-0.021237","0.004288","0.018809"
"-0.018224","-0.0013189999999999999","0.020919"
"-0.014562","0.004116","0.023728"
"-0.015974000000000002","0.006626000000000001","0.024505000000000002"
"-0.017145","0.005667","0.025111"
"-0.018181","0.0034020000000000005","0.030780000000000002"
"-0.017658","0.002136","0.033619"
"-0.014898","-0.0006320000000000001","0.034687"
"-0.014691","-0.000173","0.034494"
"-0.017916","0.002817","0.034066"
"-0.023445","0.003834","0.028417"
"-0.02414","0.005393","0.024617"
"-0.023576","0.005408","0.022491"
"-0.021159999999999998","0.008212","0.018709"
"-0.022123","0.009255","0.021148"
"-0.022175999999999998","0.011090000000000001","0.020756999999999998"
"-0.017052","0.008879999999999999","0.018969999999999997"
"-0.018702","0.008892","0.01747"
"-0.018131","0.009179000000000001","0.016444"
"-0.016406999999999998","0.003894","0.019478"
"-0.013431","0.000367","0.019596000000000002"
"-0.01151","0.002725","0.016037"
"-0.003009","0.0053170000000000005","0.011278"
"-0.002748","0.005906000000000001","0.013594"
"-0.00405","0.0029230000000000003","0.018132"
"-0.000138","-0.0023940000000000003","0.021596"
"-0.00020299999999999997","-0.0019399999999999999","0.027302"
"-0.003358","0.004654999999999999","0.023674"
"-0.006378","0.007606999999999999","0.025580000000000002"
"-0.00995","0.008882","0.026577999999999997"
"-0.012275","0.007248999999999999","0.036213999999999996"
"-0.012971000000000002","-0.001456","0.036163"
"-0.016666","-0.004344","0.03238"
"-0.01065","-0.00035800000000000003","0.034461"
"-0.012990999999999999","0.0020210000000000002","0.031945"
"-0.019481000000000002","0.006131","0.027286"
"-0.003088","0.01404","0.030077"
"-0.0049960000000000004","0.003713","0.036629"
"-0.015813","0.0033020000000000002","0.030811"
"-0.02315","0.000379","0.029006"
"-0.0179","0.0057350000000000005","0.040145"
"-0.010218999999999999","0.007765","0.047744"
"-0.008394","0.007117","0.052466"
"-0.013233000000000002","-0.0036049999999999997","0.044123"
"-0.01832","-0.012523999999999999","0.043041"
"-0.014669","-0.013406","0.032428"
"-0.000129","0.00044","0.033264999999999996"
"0.036212","0.006629","0.037523"
"0.026483","0.004888","0.019763"
"0.024798","-0.007794","0.01183"
"0.03482","-0.008493","0.015898"
"0.051425","-0.0032770000000000004","0.021495"
"0.05892000000000001","0.000399","0.022423"
"0.058516","-0.0015140000000000002","0.019535"
"0.054402","0.0014960000000000002","0.027488"
"0.058198","0.005831","0.045738"
"0.059165999999999996","0.006027","0.061444000000000006"
"0.036088999999999996","-0.00447","0.053101"
"0.025613999999999998","-0.006068","0.034779000000000004"
"0.029376999999999997","-0.005975","0.035383"
"0.038799","-0.007559999999999999","0.037462999999999996"
"0.048856000000000004","-0.00635","0.040098"
"0.056165999999999994","0.009986","0.044846"
"0.051786","0.010740000000000001","0.03282"
"0.06751900000000001","0.009836","0.021480000000000003"
"0.06712","0.0030510000000000003","0.021656"
"0.066509","0.005251","0.027666000000000003"
"0.059445000000000005","-0.007678","0.05226"
"0.05329299999999999","0.019753","0.0561"
"0.053834","0.028452999999999996","0.049369"
"0.070646","0.029325999999999998","0.020488"
"0.07144199999999999","0.018355","0.019165"
"0.074352","0.003244","0.014362999999999999"
"0.074972","-0.0042","0.012387"
"0.047657","-0.003031","0.012286"
"0.007039","-0.009236","0.0022760000000000002"
"0.01595","-0.009342","0.001505"
"0.011104000000000001","0.010624","-0.040279"
"-0.016694","0.021079","-0.044784"
"-0.02532","0.034451999999999997","-0.047812"
"-0.030369999999999998","0.0299","-0.039374"
"0.010258","0.08289500000000001","-0.005461"
"0.029733","0.046765","0.009725"
"0.048063999999999996","0.026427","0.03888"
"0.076772","0.001362","0.070271"
"0.104314","-0.004386","0.087184"
"0.13103399999999998","0.004274","0.106887"
"0.147176","0.01209","0.125619"
"0.1292","-0.023102","0.129976"
"0.050239","-0.07456","0.11515999999999998"
"0.0032","-0.071136","0.07424299999999999"
"-0.016755000000000003","-0.062817","0.06483799999999999"
"-0.020015","-0.033977999999999994","0.044439"
"-0.013536000000000001","-0.004776","0.025526"
"0.001175","0.013731","0.039764999999999995"
"0.012771","0.011759","0.0419"
"0.027487","0.012894","0.031401"
"0.043002","0.016263","0.009145"
"0.049961","0.000891","-0.002059"
"0.034753","-0.005549","-0.002449"
"-0.0008380000000000001","0.008184","0.004566"
"-0.013165999999999999","-0.019348","0.026945"
"-0.047797000000000006","0.030329000000000002","0.016334"
"-0.055486","0.020841","0.012039"
"-0.047275","0.027426","0.004221"
"-0.03306","0.027755000000000002","-0.002225"
"-0.028655","0.028752999999999997","-0.004427"
"-0.003418","0.006272","0.017706"
"-0.048954000000000004","0.012309","0.009853"
"-0.058578","0.013515000000000001","0.024758000000000002"
"-0.091049","0.019216999999999998","0.005776"
"-0.08939","0.00845","0.009706999999999999"
"-0.084108","0.009682","0.005392"
"-0.080786","0.000516","0.012295"
"-0.078748","0.006282","0.020144"
"-0.07451100000000001","-0.014266999999999998","0.024783000000000003"
"-0.068886","-0.01884","0.023242"
"-0.071116","-0.008659","0.02085"
"-0.050537","0.005078","0.028644"
"-0.041543000000000004","0.006718000000000001","0.038495999999999996"
"-0.030154000000000004","0.0030800000000000003","0.019995"
"-0.016584","0.002177","0.00041"
"-0.005908","0.002575","-0.010331"
"-8.1e-05","-0.001057","-0.0006929999999999999"
"0.000573","-0.001243","0.006807"
"-0.0027170000000000002","-0.001335","0.001369"
"-0.013572999999999998","0.008166","-0.012736"
"-0.027381","0.017785","-0.023535"
"-0.018249","0.016956","-0.012821"
"-0.018567","0.031505","-0.012408"
"-0.015946000000000002","0.02692","-0.008384"
"-0.0078049999999999994","0.017914","-0.005677000000000001"
"-0.002715","0.014381999999999999","-0.012204000000000001"
"0.00198","0.013694999999999999","-0.012044"
"0.011992000000000001","0.015679","-0.010501"
"0.005514","0.020987000000000002","-0.009562000000000001"
"-0.000193","0.008729","-0.018097"
"0.000822","0.015363","-0.031257"
"-0.004771","0.01146","-0.031481"
"-0.02189","-0.0068260000000000005","-0.017446"
"-0.017238999999999997","-0.0172","-0.00081"
"-0.016191999999999998","-0.026672","0.014907"
"-0.030327","-0.034709","0.051137"
"-0.028318","-0.034345","0.052198"
"-0.026601","-0.040522","0.07391"
"-0.025337000000000002","-0.040514","0.06655599999999999"
"-0.020181","-0.056586000000000004","0.05644"
"-0.002421","-0.060625","0.050738"
"0.012019","-0.056202999999999996","0.04268"
"0.014459","-0.046766","0.052289999999999996"
"0.027461000000000003","-0.026253","0.068531"
"0.0068650000000000004","-0.017213","0.097653"
"-0.050586","0.000363","0.10617599999999999"
"-0.091793","0.085875","0.090571"
"-0.072784","0.14676199999999998","0.044452"
"-0.004736","0.168936","-0.009356999999999999"
"-0.006644","0.144595","-0.08632999999999999"
"-0.053666","0.031947","-0.136062"
"-0.058436","-7.099999999999999e-05","-0.182033"
"0.0214","0.006286","-0.113474"
"0.057621000000000006","-0.008226","-0.01994"
"0.05706900000000001","-0.014921","0.044872"
"0.019388","-0.031891","0.035528"
"-0.01124","-0.021612","-0.00594"
"0.017806","-0.0271","-0.0036880000000000003"
"0.045016","-0.009179999999999999","0.025855"
"0.0146","-0.011221","0.036389"
"-0.004038","-0.007716","0.024891999999999997"
"0.010426999999999999","0.012025","0.022379"
"0.02647","0.005936","0.035251"
"0.029217","-0.030592","0.053687"
"0.024669","-0.009602","0.044206"
"0.019044","0.017984","0.010379000000000001"
"0.016906","0.028616000000000003","-0.009501"
"0.009634","0.006038","-0.012131999999999999"
"0.00078","0.044911","-0.038617"
"0.021999","0.032753","-0.017541"
"0.018163","0.022877","-0.001877"
"0.008334999999999999","0.003917","0.016199"
"0.000644","-0.007093","0.013250999999999999"
"0.010331","-0.003857","0.018516"
"0.018907","0.011428","0.010944"
"0.029919","0.018238","0.00263"
"0.016326","0.028968","3.4e-05"
"0.012745999999999999","0.012149","0.02257"
"0.010440999999999999","0.004494","0.026525999999999997"
"0.008572","-0.0046170000000000004","0.033881"
"0.006431999999999999","-0.011644","0.045006"
"0.006579000000000001","-0.011890000000000001","0.046716"
"0.005196","-0.010516","0.054863999999999996"
"0.003482","-0.008114","0.066725"
"0.0028640000000000002","-0.008145999999999999","0.064623"
"0.004074","-0.006979000000000001","0.056895"
"0.010017","-0.005692","0.040612"
"0.015951","-0.008936","0.037486"
"0.011355","-0.006411","0.026537"
"0.006448000000000001","-0.008943000000000001","0.018253"
"0.004251","-0.006540000000000001","0.032777999999999995"
"0.002327","-0.00619","0.040181"
"0.001633","-0.005399","0.044397000000000006"
"-0.006834000000000001","0.011226","0.045896"
"-0.005034","-0.018189","0.055615"
"-0.010295","0.030107","0.048156"
"0.005501","0.027788999999999998","0.034243"
"0.005971","0.049087","0.015006"
"-0.020909","0.056701999999999995","-0.03755"
"-0.02384","0.048235","-0.064574"
"-0.012179","0.016630000000000002","-0.023648"
"-0.002306","0.004675","0.007258"
"-0.001403","-0.010679000000000001","0.038105"
"0.027500999999999998","-0.025058","0.090777"
"0.026777999999999996","-0.021575","0.07851699999999999"
"0.010969","-0.014372","0.040563999999999996"
"0.01296","-0.0034409999999999996","0.031923"
"0.015021000000000001","-2.2e-05","0.034519"
"0.011181","0.007079","0.040545"
"-0.000105","0.012242","0.029745999999999998"
"-0.004683","0.011018","0.02194"
"-0.004901","0.010675","0.012175"
"0.003329","0.007091","0.013406999999999999"
"0.010277","0.004215","0.02109"
"0.012941","-0.002003","0.022841999999999998"
"0.012625","-0.0023420000000000003","0.025168"
"0.011686","-0.00487","0.026195999999999997"
"0.007897","-0.001301","0.026269"
"0.006904","0.000331","0.028013"
"0.003513","0.002559","0.02855"
"0.002144","0.001119","0.028807"
"0.001537","-0.001876","0.028976"
"0.004567","0.002546","0.023547"
"0.004321","0.002605","0.02018"
"0.005075","0.004378","0.020248"
"0.008322","0.003046","0.022246000000000002"
"0.007155","0.002478","0.023025"
"0.0074459999999999995","0.0024170000000000003","0.020618"
"0.0034920000000000003","0.001273","0.017821"
"0.000663","0.001032","0.018611000000000003"
"0.000657","0.000983","0.021240000000000002"
"-0.001349","0.005241","0.021089"
"-0.001715","0.005226","0.018866"
"-0.000491","0.002853","0.021211"
"-0.0016760000000000002","0.010685","0.018221"
"-0.001477","0.01067","0.018429"
"-0.00055","0.003855","0.023"
"-0.00028","-0.000288","0.020207"
"0.001586","-0.003054","0.021744"
"0.003474","-0.004398","0.021353"
"0.000344","0.0014060000000000001","0.020756"
"-0.001125","0.002903","0.021209"
"-0.00056","0.004828","0.020721"
"-0.0034990000000000004","0.008186","0.022365"
"-0.0038929999999999998","0.0044729999999999995","0.020843"
"-0.003629","0.00535","0.020663"
"-0.003986","0.00079","0.022112"
"-0.0031940000000000002","0.00082","0.024485"
"-0.0018579999999999998","0.0016760000000000002","0.024288999999999998"
"-0.0037799999999999995","0.000475","0.024361"
"-0.004557","0.001902","0.024887"
"-0.0031420000000000003","0.002494","0.025564"
"-0.001882","0.002496","0.026607"
"-0.002467","0.000468","0.025488999999999998"
"0.00037","0.0035060000000000004","0.02538"
"-0.000314","0.003439","0.026342"
"-0.000729","0.003875","0.024687"
"-0.00041600000000000003","0.001364","0.023537"
"0.004188","0.002381","0.025752999999999998"
"0.0024519999999999998","0.002302","0.026003"
"0.0024530000000000003","0.000807","0.025091"
"0.002641","-0.00042800000000000005","0.024376"
"-0.000145","-7.8e-05","0.025785000000000002"
"-0.001169","0.0012929999999999999","0.025141"
"-0.002621","0.002393","0.025619"
"-0.00294","0.002153","0.024063"
"0.000897","0.000965","0.023875"
"-0.000814","0.007141","0.022143"
"0.000523","0.009261","0.021603999999999998"
"0.002572","0.007065999999999999","0.024265000000000002"
"-0.000589","0.002196","0.023885"
"-0.003273","0.002281","0.022849"
"-0.001004","-0.000916","0.022453"
"0.0027670000000000004","0.000453","0.019361"
"0.00045","0.0037170000000000003","0.019953"
"0.002569","0.004295","0.019943000000000002"
"4.9e-05","0.005789","0.023045"
"-0.000991","0.007128","0.020612000000000002"
"0.002445","0.004072","0.020278"
"0.00125","0.002752","0.022857"
"-0.000286","0.001413","0.023554"
"-0.00035099999999999997","0.003293","0.024746"
"0.002554","0.00021600000000000002","0.027482999999999997"
"0.0008460000000000001","-0.0031219999999999998","0.028131"
"-0.003604","-0.002904","0.028018"
"0.0009130000000000001","0.002397","0.028995999999999997"
"-0.000312","6.500000000000001e-05","0.029209"
"-0.000341","0.003221","0.028447000000000004"
"-0.0007740000000000001","0.00223","0.018198"
"-0.0020670000000000003","0.002408","0.018294"
"-0.000785","0.0039689999999999994","0.018044"
"0.001593","0.003721","0.011336"
"-0.0012439999999999999","0.006206000000000001","0.011569"
"-0.002729","0.008551999999999999","0.011536"
"-0.0013210000000000001","0.0067659999999999994","0.017177"
"-0.000301","0.004484","0.018844"
"0.0012","0.00243","0.018512999999999998"
"0.000276","0.001675","0.022281"
"0.002001","0.0033350000000000003","0.022535"
"-0.000413","-0.000729","0.025531"
"-0.0035020000000000003","0.006261999999999999","0.025188"
"-0.0025109999999999998","0.007948","0.026304"
"0.000656","0.008398000000000001","0.029486000000000002"
"-0.000671","0.005091","0.031170999999999997"
"0.000518","0.002732","0.029913"
"0.0061920000000000005","-0.006361","0.031255"
"0.009637","-0.012806999999999999","0.034045"
"0.010706","-0.012275","0.035789999999999995"
"0.007681","-0.004896","0.036502"
"0.005071","0.001046","0.03477"
"0.003482","0.004089","0.03528"
"0.0025239999999999998","-0.0010140000000000001","0.031172000000000002"
"0.001003","-0.000505","0.024444"
"0.000157","-0.001227","0.022215000000000002"
"0.0008820000000000001","-7.3e-05","0.013719"
"-0.000245","0.0035310000000000003","0.016000999999999998"
"-0.001483","0.007012999999999999","0.013942"
"0.0034990000000000004","0.0077540000000000005","0.011429"
"0.001945","0.009137000000000001","0.010024"
"0.004214","0.008176000000000001","0.016156999999999998"
"0.004596","0.005866","0.01986"
"0.0018559999999999998","0.004014","0.023532"
"0.003225","0.0028350000000000003","0.025338999999999997"
"0.0024519999999999998","-0.003956","0.027836"
"0.004607","-0.003057","0.033282"
"0.007084999999999999","-0.0035659999999999997","0.036601999999999996"
"0.005525","-0.0009660000000000001","0.037275"
"0.006141","0.00434","0.036163"
"0.007234999999999999","0.005443","0.034843"
"0.004681","-0.002124","0.031606999999999996"
"0.005659","-0.0021550000000000002","0.024664"
"0.004745","0.000666","0.0196"
"0.00336","-4.4e-05","0.016577"
"-0.0009339999999999999","0.000588","0.013305"
"-0.001073","0.010748","0.013574000000000001"
"-0.001471","0.018397999999999998","0.016952000000000002"
"-0.0008359999999999999","0.010064","0.021003"
"-0.001875","0.008004","0.019801"
"-0.0026309999999999997","0.002502","0.018478"
"0.004291","-0.007134000000000001","0.023104"
"0.006554000000000001","-0.005314","0.025700999999999998"
"0.006912000000000001","-0.000518","0.027389999999999998"
"0.0049700000000000005","0.0020469999999999998","0.029245999999999998"
"0.004706","0.003836","0.029713999999999997"
"0.003967","0.008193","0.033119"
"0.006116","0.0060420000000000005","0.035486000000000004"
"0.005577","-0.00036","0.032216"
"0.00108","-0.001092","0.028579000000000004"
"0.002064","-0.002937","0.026958"
"0.0018850000000000002","-0.000752","0.027651"
"0.000959","0.0035210000000000003","0.025469"
"-0.000605","0.006939","0.021855"
"0.003059","0.005775","0.024413999999999998"
"0.001282","0.005524","0.023992"
"0.0022129999999999997","0.0018960000000000001","0.024494"
"0.002723","0.0018","0.025927999999999996"
"0.001261","0.002933","0.028174"
"0.0029809999999999997","0.000754","0.032867"
"0.0034479999999999997","0.000802","0.033789"
"0.005568","-0.0008869999999999999","0.036713"
"0.007121","-0.00040599999999999995","0.038023"
"0.006841","0.00046100000000000004","0.0373"
"0.003867","-0.0008119999999999999","0.037923"
"0.0040219999999999995","-0.001756","0.035121"
"0.0032270000000000003","-0.00043799999999999997","0.032595"
"0.004947999999999999","0.001415","0.029001999999999997"
"0.0030670000000000003","0.002716","0.027219"
"0.004183","0.005681","0.024115"
"0.003225","0.000269","0.030005"
"0.0043100000000000005","0.002436","0.026348000000000003"
"0.0020670000000000003","0.008304","0.026160000000000003"
"0.004911","0.012264","0.029064999999999997"
"0.005737","0.007840999999999999","0.028612000000000002"
"0.000698","0.0008810000000000001","0.027487"
"0.006668","-0.0048909999999999995","0.02729"
"0.00891","-0.002925","0.028872000000000002"
"0.006829000000000001","0.0016350000000000002","0.027859"
"0.0064","0.006076","0.025580000000000002"
"0.004639","0.004755","0.025266"
"0.005427","0.006196","0.020950999999999997"
"0.004529","0.002612","0.023029"
"0.004037","0.005646","0.021088"
"0.0023899999999999998","0.00375","0.022553999999999998"
"0.0005780000000000001","0.000484","0.024284"
"0.003303","0.001859","0.02835"
"0.002517","0.001861","0.028323"
"0.003602","0.002277","0.030998"
"0.002006","0.003149","0.027281"
"0.000537","0.0033049999999999998","0.028531"
"0.005233","-0.000719","0.028874"
"0.002782","0.001954","0.029102"
"0.002298","0.002934","0.02798"
"0.0014939999999999999","0.00297","0.029876"
"0.002048","0.002366","0.028473000000000002"
"0.0022440000000000003","0.001718","0.028756999999999998"
"0.002502","0.0018780000000000001","0.027014999999999997"
"0.00309","0.005485","0.029126"
"0.00022999999999999998","0.003674","0.028148000000000003"
"0.003921","0.0036969999999999998","0.027420999999999997"
"0.0057090000000000005","0.001829","0.026212"
"0.0073409999999999994","0.002278","0.026728"
"0.005084","0.001627","0.028957"
"0.007784999999999999","0.00078","0.026366000000000004"
"0.005286","0.001884","0.025813"
"0.004713","0.004989","0.028604"
"0.002187","-0.000465","0.027077999999999998"
"0.004026","-0.000595","0.028819"
"0.004603","0.005975","0.027798000000000003"
"0.004248","0.006492","0.032224"
"0.003991","0.001977","0.031603"
"0.003164","0.001048","0.028724"
"0.005918","-0.00118","0.027224"
"0.005028","-0.001713","0.024957"
"0.008418","0.001067","0.026677"
"0.007291","0.005755","0.024314"
"0.006414","0.005529","0.023925"
"0.006046","0.004737","0.025261000000000002"
"0.003355","0.004463","0.025082"
"0.002949","0.001322","0.024735"
"0.00195","0.00274","0.026281"
"0.004286","0.005013","0.028749"
"0.0051909999999999994","0.004354","0.026650999999999998"
"0.004072999999999999","0.0028710000000000003","0.027516000000000002"
"0.0033520000000000004","0.0027949999999999997","0.028370999999999997"
"0.0039770000000000005","0.002234","0.027374000000000002"
"0.004534000000000001","0.0017989999999999998","0.026875"
"0.00375","0.004051","0.026911"
"0.005312","0.006666","0.023257"
"0.0024850000000000002","0.007693000000000001","0.025789999999999997"
"0.0038079999999999998","0.009038","0.023897"
"0.001641","0.005713","0.026226999999999997"
"0.001754","0.00361","0.02767"
"0.002409","3.9e-05","0.027877"
"0.0021809999999999998","0.0016879999999999998","0.028542"
"0.003125","0.002957","0.027083999999999997"
"0.005357","0.0020280000000000003","0.025897000000000003"
"0.0065439999999999995","0.004089","0.027247000000000004"
"0.005887","0.0038469999999999997","0.026751"
"0.004148","0.004201","0.027576"
"0.007814","0.003597","0.027881"
"0.005045","0.0011330000000000001","0.028470999999999996"
"0.005561","0.0012460000000000001","0.028107999999999998"
"0.004052","0.0009449999999999999","0.026573000000000003"
"0.003222","0.001864","0.024031"
"0.004462","0.006064","0.027592000000000002"
"0.006901000000000001","0.0037770000000000004","0.028742"
"0.006118","0.003747","0.02901"
"0.007523","0.011106","0.025776999999999998"
"0.007706","0.008368","0.030978"
"0.0059960000000000005","0.004091","0.031656000000000004"
"0.00373","0.0029690000000000003","0.026871"
"0.005202","-0.0037070000000000002","0.024950999999999997"
"0.009507","-0.005405","0.025519999999999998"
"0.008225","0.000342","0.026395"
"0.0058969999999999995","0.0059960000000000005","0.024942"
"0.002693","0.007559999999999999","0.022777000000000002"
"0.003616","0.006104","0.023062"
"0.002223","0.0032890000000000003","0.02416"
"0.0028510000000000002","0.0008849999999999999","0.023944999999999998"
"0.00214","0.000739","0.023343"
"0.00541","0.003092","0.027518"
"0.006464","0.0026079999999999996","0.026504000000000003"
"0.003986","0.005145","0.026349"
"0.00386","0.002084","0.02584"
"0.004011","-0.000413","0.025508000000000003"
"0.0029920000000000003","0.001225","0.024756"
"0.004944","0.003213","0.025059"
"0.00527","0.004848","0.024811"
"0.0047079999999999995","0.005751","0.024148"
"0.004961999999999999","0.004381","0.025279"
"0.005557","0.006475","0.023625"
"0.004878","0.00245","0.025713999999999997"
"0.004534000000000001","0.002167","0.025172999999999997"
"0.004765999999999999","-0.000173","0.025923"
"0.007840999999999999","0.002495","0.022807"
"0.007794","0.002507","0.022594"
"0.005301","0.0030989999999999998","0.022226"
"0.00713","0.005691","0.022549"
"0.010279","0.0069819999999999995","0.024332"
"0.006291","0.0037560000000000002","0.023049"
"0.006171","0.002023","0.021167"
"0.00385","0.002715","0.021911"
"0.005113","0.00047699999999999994","0.023472999999999997"
"0.0070420000000000005","0.004023","0.021934"
"0.005777","0.006516","0.025764"
"0.00157","0.002614","0.026868"
"0.005027","0.007778","0.023775"
"0.005852","0.012348","0.024005000000000002"
"0.005335","0.005736","0.029757"
"0.002803","5.3e-05","0.030743"
"-0.000281","-0.000397","0.026617000000000002"
"0.002241","-0.001363","0.024713"
"0.004821","-0.001718","0.022972"
"0.005667","0.003478","0.025658999999999998"
"0.005478","0.0063100000000000005","0.021355000000000002"
"0.004417","0.006197","0.022628"
"0.004796","0.00639","0.0219"
"0.004743","0.002281","0.025695"
"0.0026219999999999998","0.003676","0.025886000000000003"
"0.004464","0.001314","0.025123"
"0.006038","0.0008449999999999999","0.025858999999999997"
"0.005009","0.007351000000000001","0.024363"
"0.0029","-0.0008359999999999999","0.024858"
"0.006064","0.0008349999999999999","0.029863999999999998"
"0.003082","0.00283","0.024415"
"0.003529","0.003252","0.027731"
"0.00252","0.004007999999999999","0.026003"
"0.005305","0.006044","0.024366"
"0.0039020000000000005","0.004215999999999999","0.025227"
"0.002986","0.008523000000000001","0.02518"
"0.003486","0.004543","0.023431999999999998"
"0.00197","0.005928","0.024624"
"0.002287","0.001485","0.028742"
"0.005515","0.002306","0.025153000000000002"
"0.004984000000000001","0.004469","0.025789"
"0.006268","0.00143","0.025021"
"0.005698","0.002113","0.024529"
"0.010355","0.002018","0.025752999999999998"
"0.006705","0.006346","0.023968"
"0.005196","0.003915999999999999","0.026398"
"0.005161","0.00391","0.026481"
"0.003929","0.000868","0.024608"
"0.005449","0.004188","0.025774000000000002"
"0.0070599999999999994","0.0042899999999999995","0.025421"
"0.006887000000000001","0.001182","0.025905"
"0.005997","0.004726","0.019177"
"0.004157","0.005995","0.019352"
"0.004842","0.0062369999999999995","0.02122"
"0.004998","0.0042710000000000005","0.025299000000000002"
"0.005868","0.0009279999999999999","0.021675"
"0.004325","-0.003312","0.017935"
"0.007532","-0.0028870000000000002","0.016826"
"0.008883","0.0019579999999999997","0.019744"
"0.006079","0.005508","0.022134"
"0.007148999999999999","0.007997","0.020679"
"0.005166","0.006053","0.017769"
"0.005154","0.006886","0.019271"
"0.002949","-0.001178","0.023835"
"0.001825","-0.002246","0.02288"
"0.0037070000000000002","0.004789","0.02197"
"0.005025","0.004745","0.022826"
"0.002727","0.004845","0.022828"
"0.0027170000000000002","0.004458","0.024796000000000002"
"0.006731999999999999","0.0034100000000000003","0.021838"
"0.004738","0.0038229999999999996","0.021293"
"0.004115","0.003483","0.021691"
"0.007436","0.0034200000000000003","0.023431"
"0.004275","0.003066","0.02273"
"0.0037560000000000002","0.006712999999999999","0.021981"
"0.007064","0.0043490000000000004","0.021953"
"0.002961","0.001634","0.018303"
"0.003431","0.004026","0.020188"
"0.0029289999999999997","0.003101","0.02178"
"0.003718","0.0028940000000000003","0.025794"
"0.005783","0.004728","0.021806"
"0.0038009999999999997","0.002995","0.023586000000000003"
"0.005994","0.004298","0.021647"
"0.004043","0.00183","0.022446999999999998"
"0.00503","0.001135","0.022241"
"0.0037479999999999996","0.002593","0.025504"
"0.004279","0.002954","0.024578"
"0.000252","0.004282","0.023666"
"0.002526","0.00329","0.022682"
"0.000947","0.0031969999999999998","0.02103"
"0.005441","0.005056000000000001","0.020748"
"0.004862","0.010804000000000001","0.020743"
"0.0028870000000000002","0.012083","0.019315"
"0.003128","0.002868","0.027431999999999998"
"0.003206","0.002865","0.027506"
"0.0042380000000000004","0.000786","0.01959"
"0.008897","-0.003945000000000001","0.017217"
"0.008974","-0.000831","0.016368999999999998"
"0.007661","0.000666","0.017490000000000002"
"0.003815","0.007396","0.01805"
"0.0035329999999999997","0.010306999999999998","0.016936"
"0.00449","0.008579","0.017988999999999998"
"0.004633","-0.001771","0.019355"
"0.003751","-0.000482","0.017766999999999998"
"0.003143","0.00024300000000000002","0.018726"
"0.003104","0.001218","0.020356"
"0.004869","0.003522","0.022463999999999998"
"0.00073","0.006692","0.023366"
"0.002177","0.004111999999999999","0.02005"
"0.005242","0.002613","0.017297"
"0.006072","0.002323","0.019"
"0.0039570000000000004","0.002064","0.018846"
"0.004154","0.002704","0.021336"
"0.0010539999999999998","0.005131","0.019579"
"0.002877","0.005222","0.019399"
"0.002663","0.0036509999999999997","0.02168"
"0.004415","0.000889","0.018538"
"0.005603","0.00107","0.019781"
"0.004288","0.002806","0.019174"
"0.008026","0.007642","0.021825"
"0.007258","0.005384000000000001","0.021404"
"0.006548999999999999","0.003571","0.018882"
"0.004884","0.0023710000000000003","0.02263"
"0.00511","0.001734","0.020967"
"0.004367","0.00331","0.017089"
"0.004957","0.005374","0.018253"
"0.004328","0.003243","0.021713"
"0.00499","0.0029100000000000003","0.020128"
"0.006116","0.006267","0.019084999999999998"
"0.007333","0.004854","0.020235"
"0.005520000000000001","0.002466","0.025730000000000003"
"0.005398","0.00302","0.020590999999999998"
"0.002424","0.000294","0.019622999999999998"
"0.005","-0.0033299999999999996","0.018411"
"0.007996","0.0005099999999999999","0.017274"
"0.005873","0.003589","0.019008"
"0.0051600000000000005","0.006146","0.017523"
"0.005673","0.006626000000000001","0.017391999999999998"
"0.003592","0.003994","0.018633"
"0.004716","0.002707","0.018459"
"0.002968","-0.000981","0.020561000000000003"
"0.004675","0.0032479999999999996","0.019637"
"0.006335","0.0027199999999999998","0.020683"
"0.0041789999999999996","0.005979","0.021907"
"0.002345","0.004047","0.021793"
"0.002139","0.000956","0.023245"
"0.003281","0.002963","0.021537999999999998"
"0.0034479999999999997","0.00186","0.02009"
"0.0023539999999999998","0.001381","0.019874"
"0.004797999999999999","0.002536","0.020538999999999998"
"0.0034950000000000003","0.004605","0.021495"
"0.004299","0.005711","0.021016999999999997"
"0.002979","0.002989","0.021029"
"0.0045520000000000005","0.0034729999999999995","0.019091999999999998"
"0.0054859999999999996","0.0035759999999999998","0.021927000000000002"
"0.003243","0.001146","0.021572"
"0.004807","0.005965","0.02187"
"0.006184","0.003565","0.022975"
"0.0041979999999999995","0.001119","0.01949"
"0.004509","0.000549","0.020735"
"0.00433","0.001808","0.018239"
"0.007690000000000001","0.004425999999999999","0.023844999999999998"
"0.004932","0.0018260000000000001","0.021293"
"0.0031149999999999997","0.000492","0.020322999999999997"
"0.004438","0.008513","0.020406"
"0.006023","0.006483","0.024243"
"0.0042829999999999995","0.002578","0.026118000000000002"
"0.005291","0.001812","0.022221"
"0.0038299999999999996","-0.002416","0.016568"
"0.008268000000000001","-0.0041979999999999995","0.014687"
"0.009006","0.002794","0.018093"
"0.006579000000000001","0.006822","0.018093"
"0.004639","0.007423999999999999","0.01515"
"0.004476","0.009106999999999999","0.013614"
"0.0043619999999999996","0.008319","0.018916"
"0.007075","0.000101","0.017869"
"0.00539","-0.000145","0.018344"
"0.005231","0.000769","0.020066"
"0.004257","0.001686","0.02061"
"0.004942","0.0033369999999999997","0.020959000000000002"
"-0.000251","0.001598","0.020703"
"0.0010710000000000001","0.00145","0.018256"
"0.00148","0.00106","0.018405"
"0.003961999999999999","0.005388","0.020265000000000002"
"0.004666","0.005338","0.017894"
"0.002882","0.006111999999999999","0.016352000000000002"
"0.002095","0.004415","0.016277"
"0.001967","0.00507","0.017813"
"0.0020670000000000003","0.001834","0.01763"
"0.001791","0.008468","0.01563"
"0.0024920000000000003","0.008922","0.017394"
"0.004582999999999999","0.013252000000000002","0.014985"
"0.008157","-0.001968","0.018543"
"0.003782","-0.002594","0.019971"
"0.006246","0.000665","0.019719999999999998"
"0.0058579999999999995","0.003261","0.027670999999999998"
"0.005833","0.003778","0.028525"
"0.0031260000000000003","0.00135","0.029368000000000002"
"0.006622","0.002888","0.024103"
"0.006804999999999999","0.0029809999999999997","0.021483000000000002"
"0.005406","-0.000834","0.029194"
"0.004518","-0.00428","0.030993"
"0.00489","-0.001434","0.025138"
"2.7000000000000002e-05","-0.000304","0.017237"
"0.002117","0.000389","0.012713"
"0.000616","0.00577","0.010456"
"-0.000571","0.0039759999999999995","0.005077"
"-0.003677","0.008136","0.0032240000000000003"
"-0.003804","0.007259999999999999","0.005929"
"-0.004867","0.007338","0.011512999999999999"
"-0.005565","0.006811","0.011103"
"-0.005898","0.008","0.013513999999999998"
"-0.004719","0.007490000000000001","0.01642"
"-0.0037549999999999997","0.005086","0.020364"
"-0.006654","9.6e-05","0.022966"
"-0.0071400000000000005","0.003996","0.025758"
"-0.00298","0.005981","0.027884"
"-0.004877","0.0032920000000000002","0.030289"
"-0.005627","0.003341","0.03021"
"-0.006194","0.005046","0.027121"
"-0.0029579999999999997","0.006595999999999999","0.027485000000000002"
"-0.0021190000000000002","0.001621","0.026964"
"-0.001668","-0.0014759999999999999","0.025438"
"-0.002292","-0.001119","0.021703999999999998"
"-0.003201","0.0019190000000000001","0.023425"
"-0.004850999999999999","0.002415","0.017276"
"-0.003304","0.0038469999999999997","0.015864"
"-0.004797999999999999","0.004032","0.016219"
"-0.005361","0.00461","0.016942"
"-0.008716","0.012209000000000001","0.015253000000000001"
"-0.006739","0.011863","0.012709999999999999"
"-0.008489","0.012813999999999999","0.010148"
"-0.005213000000000001","0.014437","0.005242"
"-0.00417","0.016343","0.012745999999999999"
"-0.002764","0.0039030000000000002","0.022246000000000002"
"-0.0045320000000000004","-0.006469","0.031248"
"-0.003793","-0.012237999999999999","0.037362"
"0.00011200000000000001","-0.011493999999999999","0.033188"
"0.0015300000000000001","-0.0074129999999999995","0.022452"
"0.0018739999999999998","-0.002137","0.018897999999999998"
"0.0036130000000000003","0.00373","0.02075"
"0.0029","0.003854","0.020105"
"0.003568","0.0016579999999999998","0.027242000000000002"
"0.00066","-0.0032409999999999995","0.032576"
"0.001396","-0.002515","0.033543"
"-0.002627","-0.000143","0.037025"
"-0.008191","8.3e-05","0.040447000000000004"
"-0.014303999999999999","-0.003551","0.04335"
"-0.017236","-0.004686999999999999","0.042617"
"-0.015373","-0.0028239999999999997","0.045392"
"-0.015704","-0.005692","0.040681"
"-0.012437","-0.00245","0.038588"
"-0.00795","-0.003225","0.035917000000000004"
"-0.0055130000000000005","-0.0052060000000000006","0.033895999999999996"
"0.002691","-0.001819","0.029976"
"0.0084","0.005854","0.026646"
"0.008884999999999999","0.003865","0.026202999999999997"
"0.009856","0.003677","0.01762"
"0.013503","-0.000336","0.019502000000000002"
"0.017133000000000002","-0.007692","0.0217"
"0.029579","-0.001668","0.024513999999999998"
"0.037015","0.000275","0.034359"
"0.044002","-0.000165","0.031817000000000005"
"0.044641","0.000537","0.028"
"0.048906","0.003872","0.030636"
"0.046672000000000005","0.008491","0.033449"
"0.048998","0.008759999999999999","0.033111"
"0.060714","0.017943","0.025509"
"0.060736","0.017834","0.027381"
"0.070228","0.004158","0.014411000000000002"
"0.077046","-0.016196000000000002","-0.003052"
"0.082716","-0.023313999999999998","0.010551000000000001"
"0.079057","-0.0038350000000000003","0.010251"
"0.064962","0.0019440000000000002","0.010144"
"0.06423999999999999","0.026543999999999998","-0.010556999999999999"
"0.06944","0.021304","-0.023242"
"0.058702","0.006723000000000001","-0.041588"
"0.05625","-0.003527","-0.049985"
"0.039586","0.000985","-0.049814"
"0.037968","-0.003832","-0.029722000000000002"
"0.030614","-0.006737999999999999","-0.010564"
"0.031843","-0.026105","-0.002225"
"0.024308","-0.013609","0.0043560000000000005"
"0.024774","0.018646","0.020306"
"0.030487","0.02113","0.037153"
"0.008226","0.008339","0.041907"
"-0.018054","0.00811","0.016769"
"-0.021188","0.013737000000000001","-0.009885"
"-0.005065","0.029133999999999997","-0.036680000000000004"
"-0.011113","0.052375","-0.047864"
"0.005186","0.024761000000000002","-0.051391"
"0.035636","0.003386","-0.052333000000000005"
"0.06654199999999999","-0.014011000000000001","-0.05144"
"0.08645800000000001","-0.008088","-0.041267"
"0.1009","-0.022112","-0.044439"
"0.135071","0.0033740000000000003","-0.020672"
"0.12185","0.0035159999999999996","-0.025497"
"0.117051","0.005052","-0.011741"
"0.12014200000000001","0.004954","-0.011726"
"0.10920899999999999","0.004076","-0.004716"
"0.118555","0.0070420000000000005","-0.003927"
"0.119977","0.014258000000000002","-0.0011619999999999998"
"0.099605","-0.0010810000000000001","0.020019"
"0.097152","0.014508000000000002","0.011067"
"0.093534","0.022563999999999997","0.015949"
"0.06578200000000001","0.026092","0.038952"
"0.012608","0.001974","0.073978"
"-0.006711","0.012953999999999999","0.070118"
"-0.003597","0.004839","0.059351999999999995"
"-0.007107","-0.017764","0.050856"
"-0.022116999999999998","-0.041433","0.060259"
"-0.052663","-0.056161","0.038439"
"-0.06099400000000001","-0.055098","0.033289"
"-0.041526","-0.008093000000000001","0.049748"
"-0.032596","0.000668","0.0502"
"-0.005363000000000001","0.025537999999999998","0.054081"
"-0.025604000000000002","0.025814999999999998","0.015071000000000001"
"-0.061375","0.017015","0.018424"
"-0.096958","0.005000999999999999","0.005671"
"-0.09714199999999999","-0.008042","-0.00040300000000000004"
"-0.11922200000000001","0.007532","0.024151"
"-0.12321099999999999","0.006252000000000001","0.038399"
"-0.12081900000000001","-0.004518","0.040786"
"-0.123396","-0.004277","0.064153"
"-0.101507","-0.001073","0.070365"
"-0.11028900000000001","-0.004078","0.072911"
"-0.087176","0.003382","0.077407"
"-0.093704","-0.001918","0.064846"
"-0.086313","0.002363","0.057975"
"-0.081243","0.014122","0.059435"
"-0.059249","0.011825","0.051570000000000005"
"-0.057844000000000007","0.01556","0.040858"
"-0.056251","0.016609","0.028045"
"-0.042992","-0.002823","0.010183"
"-0.04227","-0.0015609999999999999","0.010381"
"-0.044576","-0.012894","0.010259"
"-0.047366000000000005","0.015262000000000001","-0.004412"
"-0.036153","0.035599","-0.013585"
"-0.017757","0.04529","-0.027862"
"-0.009221","0.024366","-0.056969000000000006"
"-0.011937","0.016173","-0.033729"
"0.032586000000000004","-0.00915","0.062716"
"0.038567000000000004","-0.017482","0.052666"
"0.014083000000000002","-0.027142000000000003","0.014254"
"0.008186","0.004029","-0.040338"
"0.027292","0.010523000000000001","-0.040995"
"0.039377999999999996","0.006367","-0.0067540000000000005"
"0.023806","-0.003786","0.022291"
"0.015211","-0.010990999999999999","0.032056"
"-0.00128","-0.002964","0.02375"
"-0.004896","-0.004525","-0.002963"
"0.009231999999999999","0.003415","0.0032700000000000003"
"0.018355","0.00974","0.0046240000000000005"
"0.015847","0.011172","0.014377000000000001"
"0.006576","0.005463","0.014981999999999999"
"0.006242","0.0009339999999999999","0.010372"
"0.000734","0.010423","0.00484"
"0.002248","0.010001000000000001","0.007451999999999999"
"-0.001525","0.006998000000000001","0.008726000000000001"
"-0.005921","0.013412","-0.0009880000000000002"
"0.005106","0.00972","-0.005576"
"0.008619","0.012813","0.011553"
"-0.005755","0.012581","0.007679999999999999"
"-0.004828","0.0008119999999999999","0.010163"
"-0.006386","-0.008034999999999999","0.011145"
"0.008208","-0.014709999999999999","0.008943000000000001"
"0.029108999999999996","-0.00867","0.008484"
"0.026650999999999998","-0.007123999999999999","-0.001377"
"0.033513","-0.006455","-0.018323"
"0.082991","0.013300999999999999","-0.006363000000000001"
"0.080817","0.007795000000000001","0.011970999999999999"
"0.083107","0.01661","0.024322"
"0.106601","0.007365999999999999","0.034155"
"0.11696600000000001","0.004634","0.044126"
"0.13480599999999998","0.009701999999999999","0.051628999999999994"
"0.131473","0.003425","0.014500999999999998"
"0.114016","-0.008919","0.005411"
"0.105741","-0.006566","-0.017230000000000002"
"0.117026","0.013673","-0.032787000000000004"
"0.10506900000000001","0.015216","-0.034155"
"0.09045800000000001","0.019548","-0.04902"
"0.09954600000000001","-0.008375","-0.07295"
"0.100482","-0.008294","-0.073887"
"0.077475","-0.020799","-0.022997"
"0.061736","-0.0014810000000000001","-0.032017000000000004"
"0.066398","0.009531","-0.037238"
"0.039918","0.035754","-0.018171"
"0.022709","0.030964","0.003421"
"0.016441","0.025182","0.022506"
"0.023952","0.016711","0.078691"
"0.017037","-0.001615","0.09363300000000001"
"0.01006","-0.009209","0.074473"
"0.006239","-0.007488","0.049453"
"-0.00364","-0.004695","0.041201"
"-0.005841","-0.008537000000000001","0.039557999999999996"
"-0.004802000000000001","-0.019115","0.026344"
"0.008855","-0.010024","0.016428"
"0.023392","-0.009161","0.020030000000000003"
"0.023559","0.001394","0.03848"
"0.013608000000000002","0.009522","0.04319"
"-0.001967","0.013682","0.042125"
"-0.022197","0.005984000000000001","0.043681"
"-0.020130000000000002","0.00043499999999999995","0.037472000000000005"
"-0.019161","-0.0034409999999999996","0.02692"
"-0.020931","-0.003169","0.013987999999999999"
"-0.01678","0.004399","0.006731"
"-0.010218999999999999","0.00935","0.005665"
"-0.005159","0.010806999999999999","0.006837"
"-0.0006320000000000001","0.005194","0.005886"
"0.000468","0.0052380000000000005","0.006626999999999999"
"0.00495","-0.00032599999999999996","0.008168"
"0.004111999999999999","-0.00944","0.023197"
"0.004328","-0.009387000000000001","0.022578"
"0.008605","-0.009517","0.033513"
"0.01043","0.000611","0.030938"
"0.011154","0.001813","0.028281"
"0.010405","0.0035240000000000002","0.024597"
"0.011748999999999999","0.005599","0.01784"
"0.008457","0.007701","0.012775"
"0.006377000000000001","0.007208","0.010438"
"-0.004135","0.015986","-0.014849000000000001"
"-0.003303","0.016134","-0.025865"
"-0.006479","0.016325","-0.028024"
"-0.009379","0.026947000000000002","-0.036654"
"-0.000388","0.021486","-0.031716"
"0.001673","0.019406","-0.012898"
"0.002817","0.012098000000000001","-0.004579"
"0.004752","0.001317","0.000106"
"0.012743","0.002221","-0.00037799999999999997"
"0.014738999999999999","0.002268","0.0037409999999999995"
"0.018633","0.005593","0.007654"
"0.014544","0.001639","0.014597999999999998"
"0.015607","-0.004144","0.020891"
"0.020161000000000002","-0.007965","0.032782"
"0.023757","-0.002633","0.043287"
"0.023629","0.007873999999999999","0.039522"
"0.023687","0.009989","0.036377"
"0.014203","0.006324000000000001","0.0268"
"0.018017","-0.000248","0.012972"
"0.026068","-0.0018670000000000002","0.006353"
"0.026026999999999998","0.003698","-0.006881999999999999"
"0.022697","0.007248","-0.010612"
"0.021958000000000002","0.013277","-0.009602"
"0.020721","0.015619","-0.0008539999999999999"
"0.017105000000000002","0.015393","0.004415"
"0.017171000000000002","0.014583","0.002183"
"0.014745","0.013477000000000001","-0.0045969999999999995"
"0.020155000000000003","0.007135","-0.003488"
"0.026941000000000003","-0.002495","0.005415"
"0.029942","-0.009921","0.018354"
"0.034866","-0.006758","0.026713999999999998"
"0.035389","-0.0023190000000000003","0.030645"
"0.033764999999999996","0.0052450000000000005","0.031758"
"0.029613","0.0063219999999999995","0.031669"
"0.027217","0.0039020000000000005","0.031014"
"0.025122","0.006923","0.020793"
"0.024797","-1.7e-05","0.018591999999999997"
"0.025664","-0.002781","0.014244"
"0.024347","-0.002231","0.010020000000000001"
"0.024296","0.00503","0.005389"
"0.024196000000000002","0.008186","0.006623"
"0.024041","0.00985","0.010844"
"0.023549","0.01444","0.007162999999999999"
"0.02324","0.015206","0.006465"
"0.023283","0.012192","0.003817"
"0.02469","-0.0018859999999999999","0.01567"
"0.024391999999999997","-0.00216","0.019934"
"0.026076","-0.0017399999999999998","0.024250999999999998"
"0.024918","-0.001401","0.030736000000000003"
"0.022934","0.002437","0.033415"
"0.021314","0.004823","0.032137"
"0.021049000000000002","0.0008460000000000001","0.029082"
"0.02015","0.00048499999999999997","0.027166000000000003"
"0.015077000000000002","0.0029530000000000003","0.020661000000000002"
"0.01648","0.008503","0.014115"
"0.017731","0.007028","0.009333"
"0.015191999999999999","0.008140000000000001","0.007379999999999999"
"0.015580000000000002","0.012397","0.006556"
"0.013863999999999998","0.013019","0.006289"
"0.010751","0.014171000000000001","-0.001116"
"0.01198","0.010099","-0.001247"
"0.015338999999999998","0.008687","0.003915999999999999"
"0.018272","0.002037","0.012209999999999999"
"0.022664","-0.0005690000000000001","0.022385"
"0.023212","0.00063","0.028919999999999998"
"0.025598","0.001047","0.030680000000000002"
"0.025116","0.003907","0.030913"
"0.023122999999999998","0.006211","0.032405"
"0.021971","-0.00020099999999999998","0.033231000000000004"
"0.02226","0.001639","0.027913"
"0.021425","-0.000196","0.016687999999999998"
"0.022027","-0.002339","0.0045780000000000005"
"0.023015","0.0023190000000000003","-0.001996"
"0.018811","0.008267","-0.008532"
"0.015136000000000002","0.014868000000000001","-0.011559"
"0.013404","0.017907","-0.014234"
"0.013211","0.019143","-0.011058"
"0.013923","0.009303","-0.0041670000000000006"
"0.014586000000000002","0.006495999999999999","-0.000551"
"0.017632","0.00476","0.005599"
"0.020884","0.000611","0.017398"
"0.022855","0.001013","0.021008000000000002"
"0.025225","0.000217","0.024533000000000003"
"0.026869","0.003544","0.031752999999999997"
"0.025855","0.000901","0.031809"
"0.024123","0.0013050000000000002","0.027877"
"0.020664","0.001064","0.023216"
"0.023419","-0.0","0.006834000000000001"
"0.022322","0.000275","0.003157"
"0.021294999999999998","0.001334","0.0007"
"0.021013","0.01075","-0.00144"
"0.017748","0.012197","-0.000572"
"0.016888999999999998","0.011134","-0.00017900000000000001"
"0.0124","0.00817","0.005993"
"0.014147999999999999","0.00893","0.007012999999999999"
"0.014906","0.0050479999999999995","0.012033"
"0.019132","0.002735","0.011092"
"0.016916","0.006542","0.011278"
"0.019423","0.007984999999999999","0.016862000000000002"
"0.024191999999999998","0.001407","0.024152"
"0.023369","0.002395","0.023536"
"0.021013","0.004294","0.021953"
"0.022984","0.005954999999999999","0.017468"
"0.023436000000000002","0.005345","0.017445"
"0.020144","0.004287","0.011817"
"0.021625","0.004217","0.007437999999999999"
"0.023763","0.0037340000000000003","0.013581999999999999"
"0.025167","-0.0009460000000000001","0.024123"
"0.020839","0.003725","0.022479"
"0.017822","0.006854000000000001","0.02279"
"0.018576","0.006189","0.021641999999999998"
"0.018571","0.0050609999999999995","0.018581999999999998"
"0.015269","0.006468000000000001","0.015424"
"0.018949","0.004797","0.011082999999999999"
"0.016238","0.001738","0.00944"
"0.016015","0.007281","0.0074069999999999995"
"0.016794999999999997","0.009496","0.006224"
"0.017457","0.0077280000000000005","0.008381999999999999"
"0.017013","0.006495","0.009081"
"0.019875","0.0066159999999999995","0.011178"
"0.023422","-0.0022890000000000002","0.015087"
"0.025467","0.000269","0.01993"
"0.02787","-0.000644","0.026233999999999997"
"0.022096","0.003508","0.033393"
"0.022508","0.002333","0.033933"
"0.026238","0.0061920000000000005","0.027974000000000002"
"0.019694999999999997","-0.00023999999999999998","0.017959"
"0.018736000000000003","-0.001795","0.011661"
"0.01874","0.009487","0.004135"
"0.015881","0.012725","0.00031099999999999997"
"0.011974","0.012232999999999999","-0.0035210000000000003"
"0.010226","0.010624","-0.000195"
"0.014509999999999999","0.008992","0.0036049999999999997"
"0.01719","0.0035740000000000004","0.007751999999999999"
"0.019339","0.006589","0.007615"
"0.018346","0.004397","0.012534"
"0.019714","0.003593","0.016437"
"0.020231","0.004468","0.013316999999999999"
"0.024602000000000002","-0.001035","0.015633"
"0.021179","-0.002226","0.022834"
"0.020925","0.0016179999999999999","0.035907"
"0.018538","0.005027","0.037839"
"0.020278","0.001562","0.034232"
"0.018205000000000002","-0.000557","0.027526"
"0.017209000000000002","0.00056","0.019614"
"0.018233000000000003","-0.000695","0.016815"
"0.016685","0.003201","0.009522"
"0.019749","0.007704000000000001","0.004868"
"0.021463","0.011989","0.000413"
"0.016752","0.014191999999999998","-0.0010429999999999999"
"0.014438999999999999","0.01257","-0.000816"
"0.014283","0.008539","0.0014939999999999999"
"0.017666","0.0032090000000000005","0.004915"
"0.018341","0.00441","0.005483"
"0.019119","0.009053","0.010947"
"0.020055","0.007726","0.014029"
"0.019393999999999998","0.007356999999999999","0.019266"
"0.016835","0.009891","0.020952000000000002"
"0.009656999999999999","0.011284","0.025684"
"0.005698","0.003244","0.024913"
"0.006406","0.002555","0.023530000000000002"
"-0.008393000000000001","-0.0014470000000000002","0.020189"
"-0.00293","-0.0088","0.022963"
"-0.003014","-0.008381999999999999","0.022588999999999998"
"0.0020629999999999997","-0.00604","0.020037"
"4.4e-05","0.001847","0.019136"
"-0.008634999999999999","0.007594","0.012434"
"-0.015597999999999999","0.006121","-0.002576"
"-0.021616","0.009091","-0.007111"
"-0.023571","0.006462000000000001","-0.004834000000000001"
"-0.023543","0.005928","0.0013210000000000001"
"-0.027185","0.004331000000000001","0.007869"
"-0.027217","0.009788","0.010874"
"-0.019806999999999998","0.004222999999999999","0.020578"
"-0.012919","0.00491","0.022081"
"-0.009067","0.005905","0.020329"
"0.002878","0.001332","0.023705"
"0.009472","-0.006853","0.028257"
"0.012972999999999998","-0.003701","0.023536"
"0.023356000000000002","0.002568","0.019325"
"0.040053","-0.00409","0.015463"
"0.057263999999999995","0.000671","0.013799"
"0.07334199999999999","-0.005094","0.014530000000000001"
"0.08513899999999999","-0.014237999999999999","0.02053"
"0.090015","-0.014282","0.022348"
"0.10447100000000001","-0.007994","0.025720999999999997"
"0.106275","0.002128","0.024533000000000003"
"0.111953","0.000735","0.015833"
"0.103091","0.010081999999999999","0.007798"
"0.101826","0.016114","-0.000732"
"0.09855","0.021655","-0.013206"
"0.09333","0.012797","-0.034894999999999995"
"0.088844","0.007398999999999999","-0.072675"
"0.092693","0.005718","-0.083371"
"0.098133","0.0051530000000000005","-0.096637"
"0.087076","0.011397","-0.089904"
"0.076526","0.013987999999999999","-0.080036"
"0.074977","0.013559","-0.076459"
"0.021438","0.053344","-0.025031"
"0.015381","0.049855000000000003","-0.013855000000000001"
"0.014088","0.041588","-0.000125"
"0.045981","0.033733","0.005751"
"0.055751999999999996","0.015425","-0.006475"
"0.05821799999999999","-0.035378","0.022688"
"0.05778200000000001","-0.038387","0.056755999999999994"
"0.06655900000000001","-0.05425","0.061287"
"0.083126","-0.03306","0.041817"
"0.096201","-0.010203","0.005155"
"0.07717","-0.002134","-0.072745"
"0.11208900000000001","0.043536","-0.101897"
"0.162031","0.058096","-0.088142"
"0.161747","0.05690599999999999","-0.082149"
"0.147393","0.030152999999999996","-0.057137"
"0.07048099999999999","0.000271","-0.056982000000000005"
"0.016191","0.004745","-0.048137"
"0.037926999999999995","0.001616","-0.051263"
"0.064701","0.020895","-0.02231"
"0.068736","0.053786","-0.018039"
"0.034647000000000004","0.07186000000000001","0.003921"
"-0.019759","0.09510199999999999","0.009170999999999999"
"-0.056538","0.10497999999999999","0.009765000000000001"
"-0.081398","0.11563399999999999","0.026789999999999998"
"-0.086934","0.087565","0.040583"
"-0.101877","0.048978","0.047833999999999995"
"-0.10851300000000001","0.016458","0.045949000000000004"
"-0.097255","0.001341","0.047796"
"-0.07922699999999999","-0.006608","0.052223"
"-0.008848","-0.020199","0.056963"
"0.002316","-0.042401999999999995","0.051922"
"0.010339","-0.039524000000000004","0.052249000000000004"
"0.009386","-0.046494","0.060299"
"-0.0037170000000000003","-0.039102","0.039570999999999995"
"-0.011621","-0.035572","0.051737"
"-0.024719","-0.026262","0.05899"
"-0.03882","0.0018579999999999998","0.039639"
"-0.019983","0.0063170000000000006","0.027578"
"0.005571","0.002569","0.009106999999999999"
"0.078962","-0.022054","-0.000139"
"0.093943","-0.027586000000000003","0.006058"
"0.089442","-0.032323000000000005","0.019141"
"0.017299000000000002","-0.037473","0.07218"
"-0.004359","-0.028069999999999998","0.08116699999999999"
"-0.026198000000000003","-0.008589","0.108019"
"-0.04964","-0.001737","0.020687999999999998"
"-0.038816","-0.0041719999999999995","-0.01654"
"-0.030933999999999996","-0.002269","-0.022633"
"-0.035217","0.030271","-0.053123000000000004"
"-0.036122","0.024825999999999997","-0.043967"
"-0.027732","0.007871","-0.031164999999999998"
"0.000549","0.000225","-0.056840999999999996"
"0.017322","0.009618999999999999","-0.048062"
"0.044231","0.014494","-0.027482"
"0.044569","0.004368","-0.014897"
"0.057575","0.015446000000000001","0.014835"
"0.039028","0.011115","0.013130000000000001"
"0.034673","0.013614","0.008958"
"0.035926","0.008406","0.010765"
"0.050126","-0.01105","-0.001684"
"0.052877","-0.04193","0.006846"
"0.055626","-0.047443","0.009462"
"0.024919999999999998","-0.089686","-0.0014990000000000001"
"0.060338","-0.083656","0.016285"
"0.029424000000000002","-0.07738300000000001","0.002464"
"0.028168000000000002","-0.077461","-0.021443"
"0.016949000000000002","-0.078264","-0.031333"
"0.016807","-0.089926","-0.033893"
"0.031010000000000003","-0.087541","-0.005603"
"0.032337","-0.070911","0.010023"
"0.02597","0.015443","0.034947000000000006"
"-0.003129","0.139027","0.071158"
"-0.11303699999999998","0.20227","0.068036"
"-0.158304","0.210904","0.031810000000000005"
"-0.134108","0.163072","-0.095951"
"-0.15048599999999998","0.062076","-0.116597"
"-0.229766","-0.07598400000000001","0.010578"
"-0.2807","-0.048412000000000004","0.1382"
"-0.210042","-0.063307","0.07484299999999999"
"-0.09049700000000001","-0.044708","0.008362999999999999"
"0.041757999999999997","0.021184","0.021599"
"0.086215","0.064186","0.061358"
"0.067087","0.097638","0.051952"
"0.029242","0.119245","-0.04881"
"-0.037219","0.098436","-0.17415899999999998"
"-0.150357","0.049503","-0.213808"
"-0.166283","-0.028904000000000003","-0.088123"
"-0.08151599999999999","-0.046843","0.098853"
"-0.02093","-0.05931","0.201872"
"0.102903","-0.011861","0.279562"
"0.025832","-0.019066999999999997","0.035804"
"-0.028221","-0.006357","-0.054896"
"-0.073089","0.011311","-0.109125"
"-0.070149","0.060698","-0.10313699999999999"
"-0.033502","0.04492","0.005256"
"0.013175","0.0010400000000000001","0.118004"
"0.041757","-0.041684","0.052205999999999995"
"0.041402","-0.041514999999999996","0.061375"
"0.15104800000000002","-0.016797","0.004217"
"0.184765","3.3e-05","0.023358"
"0.15205","0.035885","0.044751"
"0.07231699999999999","-0.022093","0.12241099999999999"
"0.0067269999999999995","-0.029901999999999998","0.12341099999999999"
"-0.004549","-0.029805","0.115176"
"0.033386","-0.040698000000000005","0.07442599999999999"
"0.091585","-0.015022","0.132167"
"0.084064","-0.037578","0.13284300000000002"
"0.0791","-0.037863","0.08114099999999999"
"0.082872","-0.027237","0.043222000000000003"
"0.10363399999999999","0.010722","0.025988"
"0.138427","0.012869","-0.006168"
"0.16475499999999998","0.031054000000000002","-0.061002"
"0.154252","0.036287","-0.042273000000000005"
"0.109401","0.041994","-0.012092"
"0.068048","0.026659","-0.027324"
"0.053176","0.018904","-0.032151"
"0.067307","-0.014122999999999998","-0.014837000000000001"
"0.07749099999999999","-0.010626","-0.006342"
"0.079407","-0.0017620000000000001","-0.011935"
"0.10303699999999999","0.0029850000000000002","-0.027874"
"0.11189400000000001","-0.0018280000000000002","-0.010723"
"0.104831","-0.008901000000000001","-0.014365000000000001"
"0.087224","-0.019174","-0.033809"
"0.084539","-0.023919","-0.046984"
"0.084543","-0.019959","-0.037572"
"0.084263","-0.023777","-0.046475"
"0.100111","-0.00853","-0.039105"
"0.115672","0.0419","0.010556999999999999"
"0.094124","0.047322","0.04686"
"0.035476","0.034852999999999995","0.033889999999999997"
"0.0077269999999999995","0.0018399999999999998","0.04021"
"0.044073","-0.036246","0.031"
"0.075432","-0.044598","0.042553"
"0.086171","-0.03551","0.044293"
"0.08692899999999999","-0.004392","0.022016"
"0.086409","0.006683","0.004143"
"0.08458099999999999","0.004713","-0.006795000000000001"
"0.09501699999999999","0.002191","-0.028283999999999997"
"0.09864500000000001","0.000746","-0.041739"
"0.080117","0.010104","-0.042763999999999996"
"0.074353","0.011265","-0.039838"
"0.067621","0.015047","-0.025450999999999998"
"0.068339","0.008338","-0.020901"
"0.064273","0.010140999999999999","-0.011342"
"0.043942","0.009370999999999999","0.008931999999999999"
"0.046202999999999994","0.005527000000000001","0.016919"
"0.049292","-0.0015949999999999998","0.017312"
"0.037915","0.019488","0.046749"
"0.03354","0.026338999999999998","0.05587"
"0.026286","0.029341000000000002","0.059796"
"-0.013253000000000001","-0.004071","0.061323"
"-0.013980000000000001","-0.012616","0.061249"
"-0.011373999999999999","-0.024778","0.071399"
"-0.02037","-0.023913999999999998","0.07055499999999999"
"-0.014837000000000001","-0.0112","0.06729"
"-0.010795","-0.007475","0.06453400000000001"
"-0.032951999999999995","0.003425","0.06501"
"-0.032179","0.004759","0.06607400000000001"
"-0.041079000000000004","0.003996","0.072008"
"-0.027779","0.003001","0.061453"
"-0.019924","0.003107","0.063597"
"-0.005915","0.003396","0.057124"
"-0.00352","0.005361","0.06324400000000001"
"-0.019325","-0.011314","0.059654"
"-0.009637999999999999","0.015897","0.080838"
"-0.03829","0.011517","0.071635"
"-0.04894","0.014367","0.074254"
"-0.065838","0.039206","0.053811000000000005"
"-0.076725","0.061095000000000003","0.033231000000000004"
"-0.079671","0.060279","0.027083"
"-0.117434","0.071587","-0.030043"
"-0.09926499999999999","0.079699","-0.012312"
"-0.11015699999999999","0.060424","0.009626000000000001"
"-0.11665","0.019407","0.053653"
"-0.081052","-0.00798","0.131449"
"-0.046917","-0.038","0.15257300000000001"
"-0.033187","-0.042078","0.155325"
"0.020248","-0.016525","0.129324"
"0.021678","-0.012422","0.099119"
"0.038879000000000004","-0.016406","0.062409000000000006"
"0.039739","-0.042921","0.011545"
"0.050625","-0.042838","-0.014230000000000001"
"0.088926","-0.037222000000000005","-0.062989"
"0.094546","-0.029117","-0.091274"
"0.069885","-0.036","-0.113942"
"0.015063","-0.023518","-0.127324"
"-0.021631","-0.020776","-0.112925"
"-0.033077999999999996","-0.017855000000000003","-0.070496"
"-0.025748000000000004","-0.006236","-0.018817"
"-0.004612","-0.033124","0.027701999999999997"
"0.005051","-0.041443","0.038817000000000004"
"0.020705","-0.049993","0.046414"
"-0.005661","-0.05622100000000001","0.13030899999999998"
"-0.007571","-0.050397000000000004","0.141719"
"-0.008728","-0.052917","0.158472"
"-0.002454","-0.016814","0.158781"
"0.011933","-0.006186","0.150578"
"0.015374","-0.001174","0.15313"
"0.018895","0.029899000000000002","0.16509000000000001"
"0.0019920000000000003","0.012827000000000002","0.162827"
"-0.018195","-0.000144","0.186419"
"-0.032167","0.004484","0.163555"
"-0.039713","-0.012778","0.14343599999999998"
"-0.020723","-0.053645000000000005","0.143595"
"-0.120949","-0.027892","0.13583499999999998"
"-0.146085","-0.015627000000000002","0.113192"
"-0.08943200000000001","-0.008872","0.09753300000000001"
"-0.088322","0.013994","0.041543000000000004"
"-0.093389","0.011788","0.023503"
"-0.025825","0.026174","0.112374"
"0.05685","0.074539","0.110903"
"0.105093","0.17644100000000001","0.086732"
"0.25119400000000003","0.472013","-0.172557"
"0.23009899999999997","0.19689600000000002","-0.269084"
"0.152552","0.039786","-0.330995"
"0.072175","-0.136352","-0.102126"
"0.084239","-0.176895","-0.048593"
"0.07342699999999999","-0.148923","-0.05173200000000001"
"0.09597","0.019227","0.009139"
"0.11523699999999999","0.021259","-0.079955"
"0.11460799999999999","0.048935","-0.10209700000000001"
"0.140764","0.10776500000000001","-0.103707"
"0.12328399999999999","0.084936","-0.198406"
"0.095992","0.03418","-0.203651"
"0.04406","-0.039273","-0.15872"
"0.052609","-0.043013","-0.060522"
"0.08403200000000001","-0.02398","0.015219"
"0.07510800000000001","-0.047256","0.013030000000000002"
"0.040978","-0.046149","0.00838"
"0.05619400000000001","-0.025629000000000002","0.028862"
"0.07927100000000001","0.000558","0.027973"
"0.09374299999999999","0.010714","-0.014903"
"0.07232999999999999","0.0075439999999999995","-0.038363999999999995"
"0.051067","-0.0030789999999999997","-0.058173"
"0.05874600000000001","0.007240000000000001","-0.067384"
"0.08026900000000001","0.007294","-0.077249"
"0.117376","0.028379","-0.10248900000000001"
"0.105603","0.025578999999999998","-0.106922"
"0.09360700000000001","0.014176","-0.094315"
"0.09364700000000001","0.009778","-0.070742"
"0.090968","0.006533","-0.065808"
"0.073652","-0.0013","-0.072114"
"0.061745","0.001906","-0.070674"
"0.05731699999999999","-0.006186","-0.06616699999999999"
"0.063684","-0.0056229999999999995","-0.059253"
"0.068249","-0.0028989999999999997","-0.051766999999999994"
"0.08452899999999999","0.0037170000000000003","-0.012359"
"0.09149700000000001","0.010681","-0.0058850000000000005"
"0.095002","0.017163","0.003786"
"0.11049500000000001","0.05776799999999999","0.028508999999999996"
"0.127368","0.0685","0.038737"
"0.135687","0.082221","0.06235"
"0.058878999999999994","0.000596","0.15394000000000002"
"0.026076","-0.042505","0.147451"
"-0.060104","-0.142426","0.066221"
"-0.061824000000000004","-0.129944","0.052360000000000004"
"-0.010294","-0.063181","0.038894"
"0.027125","0.009764","0.012058"
"0.052119000000000006","0.065377","-0.030612"
"0.05004","0.07110599999999999","-0.029691000000000002"
"0.021736000000000002","0.053876","0.013106999999999999"
"-0.009656999999999999","0.012124","0.037489999999999996"
"-0.014934999999999999","-0.005235","0.049621"
"-0.022918","-0.030516","0.057289"
"-0.019422","-0.025557","0.045327"
"-0.010083","-0.016906","0.029788"
"-0.0024879999999999998","0.025344","0.031345"
"0.006231","0.033457","0.016288999999999998"
"0.001594","0.012631999999999999","0.028843"
"-0.009998","-0.000327","0.038350999999999996"
"-0.006005","-0.001449","0.031195999999999998"
"-0.0063560000000000005","0.014284","0.065979"
"-0.038439999999999995","-0.0061649999999999995","0.044666000000000004"
"-0.043897000000000005","0.016955","-0.015299"
"-0.05722000000000001","-0.004654","-0.020421"
"-0.05740599999999999","0.00395","-0.036957"
"-0.031377999999999996","0.038551999999999996","-0.010314"
"-0.029473000000000003","0.051068","0.022262999999999998"
"-0.035776999999999996","0.020541999999999998","0.043261"
"-0.039581","0.0036850000000000003","0.061086"
"-0.025827","0.022019999999999998","0.07259199999999999"
"-0.027804000000000002","-0.04508","0.076835"
"-0.006414","-0.06448200000000001","0.074371"
"0.0013050000000000002","-0.07332799999999999","0.07029400000000001"
"-0.007986","-0.046848","0.060705999999999996"
"-0.0035810000000000004","0.002832","0.054446"
"0.006343","0.021246","0.048760000000000005"
"-0.0066760000000000005","0.040788","0.029687"
"-0.02539","0.045267","0.012763"
"-0.032222","0.046191","-0.003839"
"-0.009731","0.038448","-0.05401"
"0.010359","0.032639","-0.07549"
"0.027202999999999998","0.038209","-0.076274"
"0.036167000000000005","0.038310000000000004","-0.07034"
"0.042422","0.025178","-0.044735000000000004"
"0.038738","0.016569999999999998","-0.020503"
"0.03512","0.020394","-0.007965"
"0.028551999999999998","0.012331","0.013626"
"0.012734","-0.001966","0.02002"
"0.00595","-0.015947","0.032744999999999996"
"0.009352","-0.019327","0.040547"
"0.014445","-0.017893","0.031282"
"0.014343999999999999","-0.013436000000000002","0.020724"
"0.015094999999999999","-0.004005","0.009728"
"0.014707","7.8e-05","0.005065"
"0.011701999999999999","-0.004458","-0.007252"
"0.009719","-0.0074140000000000005","-0.012783"
"0.012434","-0.004081","-0.005379999999999999"
"0.020283000000000002","0.011345000000000001","-0.002369"
"0.025954","-0.016312","-0.010437"
"0.027874","0.0006230000000000001","-0.013956"
"0.031736","0.009434","-0.011581999999999999"
"0.033211000000000004","0.019225","-0.016918"
"0.019055000000000002","0.022596","-0.037143"
"0.010787999999999999","0.033596","-0.043261"
"0.01005","0.028033999999999996","-0.0012779999999999998"
"0.005063000000000001","0.012284999999999999","0.036153"
"0.002873","0.002134","0.030760000000000003"
"0.024123","0.003116","0.014513999999999999"
"0.029479","-0.000239","-0.010853"
"0.015364","-0.0063219999999999995","-0.034468"
"-0.0038280000000000002","-0.022063","-0.050266000000000005"
"-0.008463","-0.028252999999999997","-0.042158999999999995"
"-0.006536","-0.031034","-0.033320999999999996"
"-0.012779","-0.034018","-0.019344999999999998"
"-0.014941","-0.034504","-0.020681"
"-0.006971","-0.007838","0.010516"
"0.0029530000000000003","0.005464","0.031069"
"0.003252","-0.006542","0.033463"
"-0.002297","-0.075921","0.023031"
"-0.0061070000000000004","-0.010069","0.020850999999999998"
"-0.00905","0.0741","0.037282"
"-0.012717000000000001","0.147902","0.052971000000000004"
"0.022513","0.084912","-0.079526"
"0.014862","0.047893","-0.095029"
"-0.003279","0.039166","-0.098712"
"-0.028736","-0.04738","0.070155"
"-0.019321","-0.0828","0.091596"
"-0.025941000000000002","-0.08704500000000001","0.07736799999999999"
"-0.005824","0.017782","0.064469"
"0.004738","0.07015","0.033993"
"0.007084999999999999","0.059351999999999995","0.018864"
"0.027675","0.034379","0.045741000000000004"
"0.037323","-0.000144","0.067856"
"0.00584","0.003667","0.041651"
"0.023906999999999998","-0.0152","0.062836"
"0.047609","-0.037548000000000005","0.062655"
"0.014883","-0.040525","0.052427"
"-0.017988","-0.033902999999999996","0.043592"
"-0.021869","-0.030218000000000002","0.019746"
"0.014477","0.02201","0.070698"
"-0.006793","0.049344","0.065104"
"-0.035236","0.018749000000000002","0.017449"
"0.009396999999999999","0.056025","-0.040824"
"0.024189","0.057238","-0.026087"
"0.027918000000000002","0.034572000000000006","0.009108"
"0.026976","-0.0009609999999999999","0.022491"
"0.034707","-0.022246000000000002","0.019787"
"0.034210000000000004","-0.022979","0.016321000000000002"
"0.021695","-0.016468","0.02446"
"0.015653999999999998","-0.015066","0.01623"
"0.022108000000000003","-0.002147","-0.003372"
"0.017236","0.007024","0.012017"
"0.045906","0.005372","0.067535"
"0.036799","0.002589","0.04675"
"0.006964","0.001287","0.011679"
"-0.011507","-0.015823","0.00212"
"-0.012088","-0.028369","0.012729"
"0.015995","-0.051832","0.050901"
"0.050462","-0.06539400000000001","0.043962"
"0.07037","-0.048835","0.022173"
"0.14234000000000002","-0.010005","-0.012869"
"0.147698","-0.004132","0.015858"
"0.123295","0.017914","0.01461"
"0.010105","0.12913","-0.024552"
"-0.026768","0.108965","-0.031007"
"-0.018642","0.100435","-0.040651"
"0.032827999999999996","0.039475","-0.026445999999999997"
"0.038991000000000005","0.017013999999999998","-0.017171000000000002"
"0.037346","0.018917","-0.005158"
"0.050197000000000006","-0.017849","0.018456999999999998"
"0.047139","-0.008546","-0.005947"
"0.043176","-0.00771","-0.033332"
"0.033654","-0.037732","-0.038436"
"-0.0068200000000000005","-0.043919","-0.020085"
"0.025778","-0.037999","0.005343"
"0.052025","-0.02369","0.031412999999999996"
"0.054939999999999996","0.011815","0.037457"
"0.068259","0.0187","0.024053"
"0.056634000000000004","0.03567","0.049305"
"0.039300999999999996","0.022198","0.056352"
"0.0091","0.002994","0.062963"
"-0.025086","-0.012751","0.067767"
"-0.023791","-0.022308","0.048587"
"-0.015068999999999999","-0.016038","0.037269"
"-0.022116","-0.014266","0.062578"
"-0.032310000000000005","-0.008008","0.110981"
"-0.033184","-0.0070739999999999996","0.10922799999999999"
"0.022546","0.029889","0.022622999999999997"
"0.083662","0.052186","-0.13784100000000002"
"0.07058099999999999","0.034883","-0.133225"
"0.042763","-0.009077","0.014196"
"0.042316","-0.008115","0.009569"
"0.029162","-0.006670999999999999","-0.001121"
"0.015694","-0.005719","-0.05552000000000001"
"0.014757","0.006579000000000001","-0.01623"
"0.020125999999999998","-0.003943","0.020972"
"0.00671","-0.004514","0.04904"
"0.033462","0.002852","0.027451999999999997"
"0.016384","0.011747","0.020031"
"0.010033","0.009245","0.022512"
"-0.008414","-0.004082","0.057026"
"-0.009575","-0.003932","0.056237999999999996"
"-0.003746","0.016057","0.042277999999999996"
"0.004529","0.020665","0.028899"
"0.006154","0.021778","0.032287"
"0.007","0.023701","0.036208"
"0.0037700000000000003","0.019084","0.031538"
"0.004657","0.012272","0.022613"
"-0.0028710000000000003","-0.004824","0.010346"
"0.005667","-0.004545","0.0038299999999999996"
"0.025363999999999998","-0.0053549999999999995","-0.002269"
"0.035239","-0.010593","0.002938"
"0.030826","-0.014962999999999999","0.009778"
"0.040320999999999996","-0.015968","-0.001941"
"0.03745","-0.017223","0.010378"
"0.024267","-0.007976","0.027393999999999998"
"0.012239","0.003399","0.030289"
"0.006622","0.0018219999999999998","0.034418000000000004"
"0.016541999999999998","0.002084","0.031651"
"0.014783000000000001","-0.002402","0.025429"
"0.020444999999999998","-0.013432","0.02084"
"0.033431","-0.012168","0.017033"
"0.035037","-0.003587","0.029814999999999998"
"0.031619","0.00446","0.031504000000000004"
"0.029769","0.013031000000000001","0.022966999999999998"
"0.031017000000000003","0.010104","0.012175"
"0.038557999999999995","0.008323","-0.003617"
"0.048494","0.012074","-0.005785"
"0.061304","0.010905","-0.0020050000000000003"
"0.027179000000000002","0.009659000000000001","0.021999"
"0.04236","0.024324000000000002","0.01228"
"0.057175","0.027968","-0.001489"
"0.046546","-0.004196","0.025417"
"0.041979","-0.013295","0.030579000000000002"
"0.044735000000000004","-0.021935","0.036459"
"0.043318999999999996","-0.032625","0.037271"
"0.035332","-0.026007","0.040567"
"0.034612000000000004","-0.011545","0.026586000000000002"
"0.036606","0.0016589999999999999","-0.0008089999999999999"
"0.031836","0.010131999999999999","-0.017703"
"0.032786","0.01349","-0.026358999999999997"
"0.051604","0.037069","-0.05093"
"0.05305","0.038207","-0.048045"
"0.05653300000000001","0.032881","-0.032626"
"0.045687","0.029945999999999997","-0.002376"
"0.038504000000000004","0.012615000000000001","0.007848"
"0.044223","0.004608","0.009231999999999999"
"0.039543","-0.008354","0.024856"
"0.032433","-0.01206","0.033014"
"0.025509999999999998","-0.020956","0.040866"
"0.03082","-0.018142","0.043308"
"0.045888","-0.017688","0.047895"
"0.049108","-0.00698","0.051801"
"0.044424","0.00047999999999999996","0.052504999999999996"
"0.042575999999999996","0.014746","0.047894"
"0.035389","0.0070030000000000005","0.049402"
"0.025038","-0.0031030000000000003","0.054941"
"0.011781999999999999","-0.005966","0.049735"
"0.011773","-0.006215999999999999","0.039414"
"0.006449","-0.0073219999999999995","0.02888"
"0.009806","0.009771","0.018515"
"0.018362","0.0067540000000000005","0.014491999999999998"
"0.030226","0.010253","0.006997"
"0.060391999999999994","0.023665000000000002","-0.01132"
"0.07302","0.020627","-0.0031379999999999997"
"0.047806","0.005051","0.036670999999999995"
"0.018074","-0.010694","0.043779000000000005"
"-0.005026","-0.013279","0.064121"
"-0.026417000000000003","-0.019832","0.07402"
"-0.044023","-0.009198","0.073351"
"-0.050123","-0.00381","0.09194400000000001"
"-0.048855","-0.006697","0.08609"
"-0.049797","-0.018225","0.069627"
"-0.041394","-0.017815","0.047932"
"-0.016732","-0.025602","0.045904"
"-0.0025050000000000003","-0.028814","0.047143"
"0.001489","-0.009437000000000001","0.034637"
"-0.006189","0.012306000000000001","0.021491999999999997"
"-0.025788","0.024154","0.022131"
"-0.032692","0.029067000000000003","0.03974"
"-0.048498","0.031511000000000004","0.069083"
"-0.035104","0.028268","0.087234"
"-0.024102000000000002","0.022448","0.07462200000000001"
"-0.025960000000000004","0.014441999999999998","0.049112"
"-0.034179","0.004266","0.026060000000000003"
"-0.042375","-0.0017399999999999998","0.018973"
"-0.044150999999999996","-0.005666","0.015557"
"-0.032628","-0.004675","0.022917"
"-0.022778","-0.0025039999999999997","0.030217"
"-0.005275","0.015128","0.031764"
"-0.0016469999999999998","0.017518000000000002","0.025970999999999998"
"0.0077670000000000005","0.015166999999999998","0.019234"
"0.011373000000000001","0.018533","0.006412999999999999"
"0.00783","0.007691","0.00042"
"0.0075569999999999995","0.003714","0.00123"
"0.012137","-0.001352","0.008091"
"0.00932","0.003917","0.014279"
"0.005099","0.008195000000000001","0.021759999999999998"
"0.009606","0.006287","0.006712"
"0.017893","-0.002576","-0.016796000000000002"
"0.023842","0.002741","-0.01771"
"0.020863","0.006670000000000001","-0.011387999999999999"
"0.035384","-0.012036","-0.012745000000000001"
"0.040385000000000004","-0.010878","-0.015790000000000002"
"0.045373000000000004","-0.011986","-0.024263999999999997"
"0.04506","-0.008485","-0.044596"
"0.059740999999999995","-0.024697","-0.026973"
"0.056791999999999995","-0.01061","-0.025751999999999997"
"0.051021","-0.007858","-0.034032"
"0.045566","-0.007123999999999999","-0.038555"
"0.042421","-0.009452","-0.049679"
"0.042416","-0.010203","-0.049826"
"0.044152","-0.006690000000000001","-0.045995999999999995"
"0.043727999999999996","0.000647","-0.023712"
"0.039711","0.003618","-0.019244"
"0.037318000000000004","0.00217","-0.016447999999999997"
"0.033254","-0.000508","-0.005487"
"0.031924","0.00047999999999999996","-0.001567"
"0.028943","-0.004124","0.000655"
"0.026762","-0.001011","0.000978"
"0.022709","0.004647","0.007898"
"0.017582","0.0072840000000000005","0.014021"
"0.010701","0.000968","0.020655"
"0.012496","0.000106","0.025797000000000004"
"0.014815","0.001616","0.025596999999999998"
"0.017077000000000002","0.00417","0.035382"
"0.014454","0.006562","0.035275"
"0.013244","0.005818","0.035858"
"0.003614","0.0076879999999999995","0.032369999999999996"
"0.003046","0.0065260000000000006","0.034555"
"0.003172","0.007","0.031952999999999995"
"-0.000892","0.0048259999999999996","0.045752"
"-0.000866","0.004503","0.045533"
"-0.003718","0.010702","0.044964"
"-0.002895","0.007904000000000001","0.038885"
"-0.003386","0.005413","0.038114999999999996"
"0.000334","0.006739","0.035331"
"-0.001349","0.006815000000000001","0.029344"
"0.001584","0.005441","0.028231"
"0.001504","0.004129","0.030264999999999997"
"0.004535","0.007287999999999999","0.026718000000000002"
"0.006666","0.014871","0.024942"
"0.006984000000000001","0.014884999999999999","0.023984000000000002"
"0.005313","0.008623","0.031908"
"-0.000843","0.005715","0.033907"
"-0.0011619999999999998","0.005721","0.033014999999999996"
"0.003077","-0.00233","0.038051999999999996"
"0.0028870000000000002","0.0008619999999999999","0.042963"
"0.0013570000000000001","0.005775","0.039865"
"0.001402","0.009191","0.038213"
"-0.001172","0.017808","0.018785"
"0.001917","0.012843","0.016564"
"0.003399","0.0076489999999999995","0.013907"
"0.004217","-0.0016170000000000002","0.033510000000000005"
"0.004368","-0.003771","0.036239"
"-0.000538","-0.001634","0.035248"
"-0.005711","0.0008869999999999999","0.033812"
"-0.008311","0.004156","0.027906999999999998"
"-0.005836","0.007963","0.027649"
"-0.003147","0.010762","0.028286000000000002"
"9.7e-05","0.011594","0.022900999999999998"
"-0.0032670000000000004","0.00556","0.028133999999999996"
"-0.00042199999999999996","-0.006222999999999999","0.029299000000000002"
"0.004699","-0.005921","0.031170999999999997"
"0.011189","-0.003314","0.034412"
"0.013049000000000002","-0.002888","0.038319"
"0.023365","0.00056","0.037864"
"0.016564","0.003187","0.033147"
"0.01699","0.0025670000000000003","0.024208"
"0.011801","0.004406","0.026115"
"0.010251","0.0032600000000000003","0.027236"
"0.002774","-0.000425","0.036867000000000004"
"-0.003141","-0.000381","0.034526"
"-0.011433","0.003346","0.029237"
"-0.00035299999999999996","-0.0005070000000000001","0.019739"
"0.006795999999999999","-0.003636","0.012825999999999999"
"0.008173","-0.004327","0.022921"
"0.018029","-0.001015","0.011869"
"0.005937","0.00882","0.0076359999999999996"
"0.011834","0.013919999999999998","0.000508"
"0.002787","0.014356","-0.000554"
"0.003367","0.009696","0.0032649999999999997"
"-0.004228","0.004857","0.005076"
"-0.004211","0.005522999999999999","0.009653"
"-0.008186","0.008004","0.014490000000000001"
"-0.025993000000000002","-0.002534","0.015927"
"-0.026483","-0.012554000000000001","0.016822999999999998"
"-0.02652","-0.023597","0.029349"
"7e-05","-0.033627","0.023278"
"0.07711799999999999","-0.020155000000000003","-0.063304"
"0.127994","0.020296","-0.059927"
"0.105477","0.018653","0.140051"
"0.040958","0.035961","0.21079"
"0.046197","0.071315","0.15336"
"0.06116","0.051961","0.052655999999999994"
"0.023427","0.018563999999999997","0.013483000000000002"
"0.010156","-0.005403","0.011065"
"0.018090000000000002","-0.057614","0.011319"
"0.037652","-0.043764","0.001201"
"0.049342000000000004","-0.025547","-0.02052"
"0.062336","-0.002288","-0.042541"
"0.06147999999999999","0.025262","-0.032004000000000005"
"0.082298","0.014384000000000001","-0.013226"
"0.078587","0.032448000000000005","-0.00324"
"0.063331","0.027558999999999997","-0.009404000000000001"
"0.047557999999999996","0.036411","-0.02385"
"0.035933","0.01622","-0.010759000000000001"
"0.035077","-0.008795","0.019589"
"0.05975900000000001","-0.025687","0.043833"
"0.086074","-0.028052999999999998","0.052042"
"0.124395","0.00343","0.04147"
"0.140545","0.013005000000000001","0.035598000000000005"
"0.144954","0.021499","0.033942"
"0.114801","0.019505","0.031671"
"0.096722","0.01212","0.025047"
"0.088785","0.002876","0.022559"
"0.067504","-0.005056000000000001","0.019518999999999998"
"0.039418","-0.028251","0.007442"
"0.030617000000000002","-0.003629","-0.004529"
"0.02592","-0.006026","-0.021006999999999998"
"0.027947000000000003","-0.0006929999999999999","-0.014801"
"0.033981","0.006243","-0.00902"
"0.051011","0.012237","-0.018082"
"0.06631000000000001","0.01144","-0.017458"
"0.085957","0.014301","0.009865"
"0.08230900000000001","-0.00106","0.040359"
"0.07589","-0.001917","0.046781"
"0.034849","-0.015378","0.046604"
"0.008481","-0.017075","0.038342"
"0.00246","-0.017254","0.035535000000000004"
"-0.003409","-0.008761","0.03889"
"-0.003418","-0.007873999999999999","0.048316000000000005"
"-0.001773","-0.003848","0.052483"
"-0.00116","0.003457","0.080318"
"-0.008912999999999999","0.01672","0.086351"
"-0.013323","0.021700999999999998","0.085583"
"-0.033036","0.002026","0.089465"
"-0.051138","0.0038280000000000002","0.080353"
"-0.060826","-0.001603","0.075583"
"-0.075455","0.0008560000000000001","0.063086"
"-0.063554","-0.004","0.048643"
"-0.055477","-0.011806","0.020597"
"-0.046992","-0.011993","0.011405"
"-0.031241","-0.004967","0.014294"
"-0.021188","0.004676","0.028808999999999998"
"-0.013493000000000002","0.007555","0.043151999999999996"
"-0.025977999999999998","0.025126","0.037085"
"-0.035041","0.025944","0.048649"
"-0.052162","0.033291","0.067651"
"-0.10471400000000002","0.064169","0.069888"
"-0.104321","0.07559400000000001","0.046805"
"-0.092587","0.082121","0.040079000000000004"
"-0.082416","0.032261","0.018704"
"-0.069006","0.019928","1.4999999999999999e-05"
"-0.060126","-0.00527","-0.005074"
"-0.06454","-0.10314200000000001","-0.018573"
"-0.073295","-0.121733","-0.002711"
"-0.075126","-0.13174","0.0064329999999999995"
"0.003956","-0.098039","0.043204"
"0.053603","-0.040513","0.012506"
"0.052004999999999996","-0.016801","-0.025468"
