"userAcceleration.x","userAcceleration.y","userAcceleration.z"
"0.189833","-0.90041","-0.005203"
"0.315693","-0.777871","-0.048099"
"0.25133","-0.693148","-1.0043229999999999"
"-0.31074","-0.585387","-0.6454"
"-0.857109","-0.778597","-0.833509"
"-0.5753689999999999","-0.868392","-0.17896800000000002"
"0.0016879999999999998","0.47521599999999997","0.715064"
"0.251576","1.9709430000000001","0.449375"
"-0.043838999999999996","2.034657","0.378894"
"-0.84809","1.376615","0.58767"
"-0.585674","1.924193","-0.369399"
"0.655806","1.624123","-0.937167"
"0.680442","1.477175","-0.393561"
"0.37961100000000003","0.252423","0.6032310000000001"
"0.497996","-0.28086300000000003","0.7098439999999999"
"0.562315","-0.786612","0.766848"
"0.021934","-2.317888","0.891192"
"0.025687","-2.243798","1.051512"
"-0.069128","-1.747169","1.150012"
"0.330043","-0.762916","0.43696499999999994"
"-0.024013999999999997","0.083752","-0.66181"
"-0.402279","0.448402","-1.04264"
"0.124769","-0.8785950000000001","-0.9010450000000001"
"0.547133","-1.587294","0.42440600000000006"
"0.237657","0.46985","2.522191"
"-0.208262","2.631194","-0.16006700000000001"
"0.815341","1.2472370000000002","-0.733681"
"-0.587976","0.288007","-0.665744"
"0.29515399999999997","1.3134629999999998","1.2085629999999998"
"0.079071","1.4349969999999999","0.5683020000000001"
"-0.48714399999999997","1.646448","0.029613"
"0.410182","0.995265","0.043705"
"-0.270723","0.102994","-1.072963"
"-0.407462","-0.017591","-1.223625"
"-0.5859489999999999","-0.596928","-0.94424"
"-0.029463","-0.8963110000000001","-0.267962"
"0.454154","-0.822105","0.083837"
"0.560128","-0.824358","-1.211003"
"-0.038225999999999996","-0.677639","-0.437496"
"-0.43908100000000005","-0.854866","-0.6122569999999999"
"-0.620966","-0.940652","-0.256289"
"-0.32139","-0.656287","0.16630599999999998"
"0.101497","0.415994","0.503834"
"0.201783","1.544149","0.528934"
"-0.33484","2.0557790000000002","0.48595299999999997"
"-1.332251","1.7455669999999999","0.219723"
"-0.452334","1.7482090000000001","-0.131077"
"0.761727","1.521375","-0.906273"
"0.8196950000000001","1.51535","-0.377713"
"0.740236","0.7706850000000001","0.648045"
"0.228425","-0.255994","0.744124"
"-0.350688","-1.563843","0.565883"
"-0.08456699999999999","-2.302531","0.746991"
"0.093276","-2.099191","0.904542"
"0.39487300000000003","-1.437408","1.040143"
"0.483141","-0.563086","0.311998"
"0.230821","-0.13444","-0.157107"
"-0.08820800000000001","0.0727","-1.17977"
"-0.048056","-1.319417","0.062167999999999994"
"0.084026","-1.910939","0.543855"
"0.018525","-1.037173","2.30324"
"-1.011003","2.623561","0.658624"
"-0.404041","5.788749","-3.904067"
"-0.105401","-0.06244299999999999","-0.555658"
"-0.086147","0.41649899999999995","0.8893969999999999"
"0.0065840000000000004","0.970433","0.635609"
"-0.271417","0.966907","0.148836"
"0.595924","1.460798","0.657654"
"0.33893","0.9951780000000001","-0.192855"
"0.15399000000000002","0.717271","-0.9873270000000001"
"-1.26799","-0.837878","-0.901711"
"-1.263875","-0.8334159999999999","-0.9260520000000001"
"0.598264","-0.724677","0.295073"
"0.736425","-0.803712","-0.591076"
"0.44363800000000003","-0.715907","-0.803381"
"-0.380737","-0.623059","-0.6631859999999999"
"-1.106378","-0.893317","-0.43598000000000003"
"-0.44072700000000004","-0.156588","0.371344"
"-0.246754","0.578878","0.579114"
"-0.08226","1.55925","0.371994"
"0.014528999999999999","1.786445","0.356831"
"-0.44334399999999996","2.123201","0.7633850000000001"
"0.030079","1.76397","-0.641976"
"0.324534","1.366873","-1.170088"
"0.592156","1.465473","-0.60127"
"0.6496029999999999","0.42251000000000005","0.654259"
"0.075536","-0.532672","0.490696"
"-0.12173099999999999","-1.2293209999999999","0.587424"
"-0.153386","-1.833463","0.676369"
"0.192573","-1.794439","1.033993"
"0.037971","-1.63115","1.12416"
"0.224279","-1.3907100000000001","0.78654"
"0.377843","-0.401739","-0.017396000000000002"
"-0.143272","-0.16384400000000002","-0.677092"
"0.103473","-1.17259","-0.6158170000000001"
"0.048058","-1.6176840000000001","-0.05800399999999999"
"0.09574400000000001","-1.08822","1.59556"
"-0.806987","1.285017","2.620088"
"1.200272","4.365208999999999","2.226286"
"-0.33701","-0.156854","-1.6637279999999999"
"0.396568","0.809117","0.9757110000000001"
"0.354918","0.597094","0.703028"
"-0.045012","1.6555389999999999","0.257274"
"0.142654","1.192549","0.13539600000000002"
"0.09925700000000001","0.801588","-0.215648"
"-0.490246","-0.001073","-1.856703"
"-0.9241440000000001","-0.9584159999999999","-0.80416"
"-0.41651800000000005","-1.0487229999999998","-0.450429"
"0.43557299999999993","-0.584661","0.337528"
"0.482741","-1.0081209999999998","-1.394825"
"0.287308","-0.885683","-0.84119"
"-0.533188","-0.8632350000000001","-0.513117"
"-0.7528279999999999","-1.034427","-0.380952"
"-0.606412","-0.902183","-0.289173"
"0.074991","1.201532","0.664549"
"0.265133","2.5314810000000003","0.43786"
"-0.252931","2.429432","0.426212"
"-1.118069","1.514904","0.27069299999999996"
"-0.036491","1.8523900000000002","-0.451612"
"0.59027","1.718174","-0.245824"
"0.674361","1.520451","-0.394673"
"0.45237","0.781025","0.493758"
"0.341378","0.15467999999999998","0.8282229999999999"
"0.125853","-1.6533959999999999","0.647289"
"0.10126","-2.208137","1.024382"
"0.023896","-2.186126","1.18628"
"-0.010279","-1.565423","1.230153"
"0.364543","-1.172391","0.361125"
"0.021652","-0.229373","-1.046286"
"0.109707","-0.074414","-1.533576"
"0.087252","-0.51972","-0.11015799999999999"
"0.180464","-1.7844520000000001","0.733172"
"-0.089755","-1.4606700000000001","1.4161030000000001"
"-0.6898920000000001","1.3588790000000002","2.904656"
"-0.287509","5.347477","-1.471617"
"0.9561290000000001","0.49795900000000004","0.40626"
"-0.200205","-0.317977","-0.9174559999999999"
"0.5435439999999999","1.29189","1.095124"
"-0.1142","1.6766009999999998","0.143427"
"0.320155","1.6194110000000002","0.21402800000000002"
"0.22763699999999998","0.789377","-0.634109"
"-0.712194","-0.059072","-1.624935"
"-1.224958","-0.669805","-1.053379"
"-0.28873899999999997","-0.889541","-0.391024"
"0.50757","-0.656216","0.468508"
"0.575292","-0.969173","-1.076869"
"0.175886","-0.643041","-0.952794"
"-0.450492","-0.8403360000000001","-0.457538"
"-0.484543","-1.016602","-0.263761"
"-0.412008","-0.830514","-0.137265"
"-0.04334","-0.275301","0.249427"
"0.20852600000000002","1.8049279999999999","0.411575"
"0.078149","2.154014","0.407454"
"-0.8920049999999999","2.408309","0.5463279999999999"
"0.36843400000000004","1.9262290000000002","-0.001464"
"0.572783","1.477668","-0.589475"
"0.45342899999999997","1.348835","-0.815495"
"0.601262","0.802083","0.570813"
"0.478387","0.030792","0.7099989999999999"
"-0.10638900000000001","-1.6638279999999999","0.840413"
"-0.170722","-2.449843","1.384121"
"-0.064006","-2.354389","1.473296"
"-0.08712400000000001","-1.470807","1.09439"
"0.092593","-0.882584","0.319306"
"0.086115","-0.513766","-0.10238"
"-0.10451400000000001","-0.01605","-1.167154"
"-0.050921","-0.174716","-0.654701"
"0.298673","-1.463092","0.533116"
"-8.6e-05","-1.044375","1.336726"
"-0.406087","1.791398","1.8915240000000002"
"0.043024","1.9068450000000001","-0.36817"
"0.48863900000000005","0.655953","-0.031958"
"0.20748000000000003","0.690666","0.342801"
"-0.21884299999999998","1.429301","0.608413"
"-0.33498","1.60172","-0.143129"
"0.750063","1.452149","0.46482299999999993"
"0.547963","1.096551","-0.524115"
"-0.402896","-0.031999","-1.552819"
"-1.218264","-0.778979","-1.0632549999999998"
"-0.30399899999999996","-0.8797299999999999","0.037161"
"0.5477890000000001","-0.700021","0.27542300000000003"
"0.556137","-0.792662","-1.4980149999999999"
"0.262363","-0.692071","-0.815882"
"-0.209382","-0.9504610000000001","-0.41215100000000005"
"-0.50869","-0.9822489999999999","-0.6644909999999999"
"-0.346884","-0.836779","-0.136105"
"-0.143137","-0.598661","-0.10746199999999999"
"-0.023257","-0.10313499999999999","0.21682800000000002"
"-0.069896","2.216491","0.683008"
"-0.200302","3.040321","0.607911"
"-0.732698","1.579328","-0.11709800000000001"
"-0.090023","1.5892620000000002","0.128584"
"0.457293","1.094191","-0.651471"
"0.804199","0.978815","-0.45581400000000005"
"0.8112060000000001","0.6608890000000001","0.040244999999999996"
"0.403087","-0.430007","0.743265"
"-0.292697","-1.8117130000000001","1.069466"
"-0.198872","-2.262514","1.17736"
"0.015712","-2.311302","1.345459"
"0.0050409999999999995","-1.286651","1.364481"
"0.045997","-1.091389","1.005998"
"-0.037143","0.10245499999999999","-0.430796"
"-0.23431999999999997","0.774432","-1.636994"
"-0.13092","0.184121","-2.368796"
"0.48666000000000004","-1.235737","0.98672"
"0.1141","2.67505","1.118476"
"0.609142","-0.191621","1.614018"
"-0.430654","0.15204700000000002","-0.45006999999999997"
"0.042201","0.986326","0.7793329999999999"
"0.178834","1.509206","0.588731"
"-0.112221","1.678432","-0.059694000000000004"
"0.37578","1.528081","0.13399"
"0.383141","1.252996","-0.11416400000000002"
"-0.534501","-0.069241","-1.055995"
"-0.917831","-0.7045710000000001","-1.0310350000000001"
"-0.32762399999999997","-0.946076","-0.376517"
"0.5393140000000001","-0.7410180000000001","0.445741"
"0.7964100000000001","-0.812447","-1.334553"
"-0.15959500000000001","-0.593838","-0.9083370000000001"
"-0.37142600000000003","-0.724595","-0.7314"
"-0.386748","-0.9730709999999999","-0.53073"
"-0.187923","-0.728509","-0.155315"
"0.043552999999999994","-0.38103899999999996","0.016694"
"0.191753","1.284354","0.636145"
"-0.44336499999999995","2.107831","0.74273"
"-1.398744","2.57297","0.5776939999999999"
"-0.9875940000000001","1.763282","0.608594"
"0.464218","1.4365350000000001","-1.119691"
"0.818503","1.865863","-1.189016"
"0.6470779999999999","1.1784139999999999","0.255907"
"0.734103","-0.035815","0.744464"
"0.08609299999999999","-1.162938","0.47825200000000007"
"-0.07082000000000001","-1.9980759999999997","0.7413489999999999"
"0.063473","-2.455984","1.100817"
"0.106849","-1.9278990000000003","1.452652"
"0.125373","-1.5056260000000001","1.257127"
"0.379904","-0.6744979999999999","0.44017"
"0.06826499999999999","0.139594","-0.5199229999999999"
"-0.173655","0.684174","-2.157954"
"-0.145521","-0.289487","-1.239511"
"0.330816","-1.310637","0.686812"
"0.17748699999999998","1.336385","1.663916"
"-0.106467","-0.25002199999999997","1.108675"
"-0.256968","-0.044355","0.529792"
"0.294769","1.433616","1.069587"
"-0.028567000000000002","1.483442","0.7666430000000001"
"-0.447201","2.0432080000000004","-0.130187"
"0.843937","1.605057","-0.238033"
"0.7648729999999999","1.048589","-0.527345"
"-0.8823270000000001","-0.482548","-1.219482"
"-0.633783","-0.9513030000000001","-0.431098"
"0.348808","-0.858677","0.303798"
"0.46738","-0.8043640000000001","0.061696"
"0.30790700000000004","-0.586186","-0.8922770000000001"
"0.06165","-0.653275","-0.49704899999999996"
"-0.5792510000000001","-0.892453","-0.855392"
"-0.24435199999999999","-0.826074","-0.08386"
"0.32001999999999997","0.08821799999999999","0.520159"
"0.261067","1.7826490000000002","0.558307"
"-0.548808","2.043434","0.5488689999999999"
"-1.326317","1.982103","0.787222"
"-1.762648","2.197073","-0.378676"
"0.9557549999999999","1.849001","-0.461038"
"1.38602","1.617038","-0.748917"
"1.1479700000000002","1.458465","-0.098701"
"0.141219","-0.632394","0.660546"
"0.029776","-1.1395520000000001","0.46203900000000003"
"0.000479","-1.86715","0.8856200000000001"
"0.23398400000000003","-2.0866439999999997","1.2662209999999998"
"-0.13147899999999998","-1.719197","1.703799"
"-0.034767","-1.476796","1.430382"
"0.272554","-0.49203199999999997","0.352773"
"0.093334","0.381961","-0.6990109999999999"
"-0.054738999999999996","1.122172","-2.2138009999999997"
"0.143958","-0.536254","-0.43905500000000003"
"0.7340399999999999","-2.365319","0.973621"
"0.169823","0.025710000000000004","2.491225"
"-0.606518","2.486446","-0.522331"
"1.01171","1.155597","1.405979"
"-0.488835","0.133189","-0.353603"
"-0.239563","0.776954","1.266146"
"-0.861355","1.7486080000000002","0.068961"
"0.330342","2.0866029999999998","0.304844"
"0.574549","1.35638","0.1033"
"0.260088","0.708627","-1.047696"
"-0.815535","-0.407321","-1.205546"
"-0.896202","-0.8802840000000001","-0.7883359999999999"
"0.238934","-0.685793","0.111853"
"0.6970770000000001","-0.901863","-0.9292040000000001"
"0.135706","-0.652968","-0.5733199999999999"
"-0.23141599999999998","-0.737873","-0.5434359999999999"
"-0.6625880000000001","-0.941159","-0.5626770000000001"
"-0.218094","-0.6566029999999999","-0.062217999999999996"
"2.5e-05","-0.475379","0.1523"
"-0.026889","1.2328629999999998","0.5801689999999999"
"-0.057902999999999996","1.6606599999999998","0.5065890000000001"
"-0.339038","2.283473","0.254952"
"-1.265715","2.395499","1.099068"
"-0.25874400000000003","1.7812400000000002","-0.710501"
"0.6861510000000001","1.626164","-1.2278879999999999"
"0.838514","1.254175","-0.322395"
"0.74505","-0.150053","0.570471"
"0.331073","-0.673347","0.47826499999999994"
"-0.191303","-1.1556879999999998","0.774161"
"-0.000986","-2.2246189999999997","1.256964"
"0.042383","-2.20214","1.43256"
"-0.073154","-1.708173","1.646332"
"0.429282","-0.459967","0.43271499999999996"
"0.351718","0.00048499999999999997","0.02273"
"0.11292","0.744095","-1.433976"
"0.009997","-0.804311","-0.608031"
"0.27505300000000005","-1.8246099999999998","0.545606"
"0.078427","-0.6895439999999999","2.417484"
"-0.7028260000000001","2.240615","0.8663700000000001"
"-0.423058","3.2934959999999998","-1.6350360000000002"
"-0.241873","0.462642","-0.8012090000000001"
"0.317888","0.9457760000000001","0.947084"
"-0.358987","0.931322","0.42230100000000004"
"-0.14826199999999998","1.725441","-0.070633"
"0.49468199999999996","1.47315","0.375923"
"0.465754","1.271182","-0.08329"
"-0.277594","-0.212436","-1.730321"
"-1.162731","-0.714808","-1.06227"
"-0.38469000000000003","-0.816192","-0.088655"
"0.430655","-0.6557810000000001","0.139423"
"0.57047","-0.906784","-1.26715"
"0.185095","-0.587743","-0.579747"
"-0.304865","-0.8283969999999999","-0.461555"
"-0.679711","-0.9057780000000001","-0.497113"
"-0.487425","-0.886417","0.072198"
"0.045639","-0.23194099999999998","0.464534"
"-0.194598","1.953746","0.7028310000000001"
"0.09548","2.4360630000000003","0.36727"
"-0.9931200000000001","2.336983","0.533909"
"-0.133963","1.515075","-0.749812"
"0.659087","1.5296610000000002","-1.231307"
"0.778062","1.316111","-0.1015"
"0.674534","-0.029538","0.628326"
"0.03461","-1.034988","0.6762729999999999"
"-0.318029","-1.435476","0.787169"
"0.061988999999999995","-2.270677","1.2647389999999998"
"-0.055499","-1.735167","1.590242"
"-0.11820399999999999","-1.585849","1.442809"
"0.05364","-0.47575600000000007","0.103899"
"0.018761","-0.219761","-0.284595"
"-0.026289999999999997","-0.343073","-1.003517"
"0.29993400000000003","-1.2415040000000002","0.00033"
"0.29785","-1.549822","0.535272"
"-0.039086","1.376551","1.9493150000000001"
"0.331115","3.3823239999999997","-0.7274729999999999"
"1.607469","1.600609","2.875787"
"-0.064738","0.432044","0.867941"
"-0.07408","1.1736879999999998","0.5976199999999999"
"-0.31108","1.278198","0.131072"
"0.204201","1.8009220000000001","0.13580599999999998"
"0.195525","0.7885770000000001","-0.357272"
"0.06640900000000001","0.45948599999999995","-1.068283"
"-0.762083","-0.77996","-0.88405"
"-0.45318100000000006","-0.811062","-0.21619499999999997"
"0.282646","-0.5313100000000001","0.41830500000000004"
"0.513606","-0.943152","-1.528338"
"0.252722","-0.672816","-0.794427"
"-0.215151","-0.7738689999999999","-0.5973"
"-0.42617299999999997","-0.872245","-0.611344"
"-0.390444","-0.718849","-0.12955999999999998"
"0.037627999999999995","-0.18193499999999999","0.33269099999999996"
"-0.037586","1.6762290000000002","0.6434529999999999"
"-0.262373","2.296049","0.666337"
"-1.0971870000000001","2.017235","1.233818"
"-0.533904","1.5723209999999999","-0.080367"
"0.51136","1.545297","-1.458985"
"0.727297","1.8010680000000001","-0.675779"
"0.997541","0.9087219999999999","0.569313"
"0.593132","-0.299533","0.5172180000000001"
"-0.07837000000000001","-1.253547","0.7869970000000001"
"-0.252786","-2.061617","0.9241870000000001"
"0.062908","-2.169679","1.260086"
"0.115771","-1.7555060000000002","1.626153"
"0.10738199999999999","-1.4249129999999999","1.162113"
"0.281102","-0.532091","0.35483200000000004"
"0.044705","0.083717","-0.626505"
"-0.148328","0.625537","-1.516467"
"0.5063880000000001","-1.783379","0.29267"
"0.360896","-1.968878","0.7027399999999999"
"-0.015101","-0.140981","2.771259"
"-0.816641","3.015038","-1.995848"
"1.5262799999999999","1.390584","2.0919950000000003"
"-0.264878","0.458682","-0.995612"
"-0.283577","1.075234","0.365307"
"-0.460056","1.224518","-0.23553000000000002"
"0.256488","1.94502","0.49318999999999996"
"0.202353","0.8412540000000001","-0.672433"
"-0.43103500000000006","-0.341167","-1.9802220000000001"
"-1.005929","-0.765325","-0.840709"
"0.046537","-0.671866","0.248452"
"0.37837","-0.602635","0.39313200000000004"
"0.464355","-0.7529140000000001","-1.029285"
"0.34603","-0.767716","-0.544694"
"-0.037485000000000004","-0.85505","-0.39960500000000004"
"-0.37159000000000003","-0.7173619999999999","-0.37555900000000003"
"-0.347894","-0.6061449999999999","-0.186829"
"-0.122512","-0.525389","0.095573"
"0.001083","1.270537","0.633705"
"-0.04013","1.94442","0.45289700000000005"
"-0.76858","2.876466","0.391773"
"-0.6082489999999999","2.25875","0.695331"
"-0.040034","0.840808","-1.128973"
"0.676714","1.4479360000000001","-1.097842"
"1.19319","1.127905","0.028807"
"0.7809159999999999","0.036114999999999994","0.468682"
"-0.060204999999999995","-1.0739239999999999","1.016732"
"-0.32907","-1.970805","1.28162"
"0.097648","-2.1003819999999997","1.506045"
"0.308948","-1.870339","1.6484880000000002"
"0.285404","-1.414415","1.160513"
"0.348486","-0.491932","0.321385"
"-0.06943300000000001","0.067839","-0.627468"
"-0.425997","0.9737889999999999","-1.837778"
"0.223613","-0.9240389999999999","-0.050932"
"0.38787","-1.920182","1.401363"
"-0.48410299999999995","2.419295","1.563683"
"1.393518","1.262493","0.812142"
"-0.067876","0.729005","0.247297"
"0.07266900000000001","0.503341","0.681319"
"-0.328891","1.209969","0.473879"
"-0.264696","2.034564","-0.510775"
"0.49805299999999997","1.4924110000000002","0.07685"
"0.279974","0.611923","-0.710204"
"-0.7270340000000001","-0.580507","-1.1623219999999999"
"-1.049267","-0.793794","-1.004375"
"0.011001","-0.884642","-0.099875"
"0.472526","-0.8363","0.48823"
"0.749732","-0.917214","-1.149836"
"-0.057616999999999995","-0.575082","-0.728106"
"-0.376333","-0.770775","-0.7265020000000001"
"-0.493173","-0.907143","-0.23086500000000001"
"-0.030343000000000002","-0.333415","0.095825"
"0.175813","0.274021","0.5176109999999999"
"0.291673","1.209015","0.649674"
"-1.070569","2.287779","0.5151100000000001"
"-1.439086","2.381511","0.24026199999999998"
"-0.524918","2.2805459999999997","1.010061"
"0.7181569999999999","1.58543","-1.636906"
"0.759736","1.7469299999999999","-1.2519"
"0.502157","0.30895500000000004","0.668037"
"0.449158","-0.948406","0.866124"
"-0.009849","-1.7839580000000002","0.947108"
"-0.054229","-2.236903","1.173585"
"0.19717300000000001","-2.042927","1.726749"
"-0.007536","-1.734784","1.421153"
"0.142675","-1.313891","0.697477"
"0.306345","-0.541142","0.007838"
"-0.035776999999999996","0.494961","-0.9579190000000001"
"-0.06350900000000001","0.39663200000000004","-1.468603"
"0.288084","-1.315194","0.247387"
"-0.162742","-0.9409639999999999","0.641591"
"0.135989","2.962508","1.752734"
"1.3290309999999999","1.373308","3.044461"
"-0.050844","0.230802","-0.046057"
"0.35583899999999996","0.877315","0.756867"
"-0.255252","1.3715959999999998","0.283934"
"-0.415075","2.084304","-0.481363"
"0.493771","1.2659209999999999","0.102626"
"0.196213","0.441543","-0.450158"
"-0.728564","-0.094695","-1.2637209999999999"
"-1.349566","-0.913869","-0.8387879999999999"
"-0.035782","-0.788683","0.107922"
"0.57681","-0.677524","-0.10417799999999999"
"0.731532","-0.7939970000000001","-1.54148"
"0.283982","-0.637067","-0.53599"
"-0.185441","-0.8545729999999999","-0.429151"
"-0.45210600000000006","-0.648947","-0.5817319999999999"
"-0.0633","0.479001","0.616275"
"-0.0035240000000000002","1.285483","0.7338560000000001"
"-0.34518499999999996","1.9399939999999998","0.360691"
"-1.210341","1.639057","0.5521590000000001"
"-0.679305","1.841643","0.376734"
"0.40989799999999993","1.8825880000000002","-0.9119879999999999"
"0.8691059999999999","1.845747","-0.32404499999999997"
"0.807088","0.6970729999999999","0.636621"
"0.412508","-0.48686","0.377091"
"0.25971500000000003","-1.225738","0.6429560000000001"
"0.12356400000000001","-1.58859","0.88495"
"0.21773499999999998","-1.992374","1.385262"
"0.107923","-1.7251290000000001","1.780976"
"0.10357000000000001","-1.671125","1.6418599999999999"
"0.155093","-0.594258","0.185933"
"0.045786","-0.06180599999999999","-0.638494"
"0.151603","0.539747","-1.625278"
"0.34000199999999997","-1.2112","0.272982"
"-0.061252","-1.534904","0.778026"
"-0.32495100000000005","1.464449","2.560579"
"0.700738","2.8150560000000002","0.306756"
"0.28541500000000003","1.103791","0.5178729999999999"
"0.09977899999999999","0.651379","0.408551"
"0.042056","1.098798","0.873778"
"-0.352403","1.5192709999999998","-0.294662"
"0.377181","1.550225","0.202848"
"0.17214300000000002","0.763273","-0.41898"
"-0.429096","-0.021084000000000002","-1.626219"
"-1.211596","-0.7591640000000001","-1.0305389999999999"
"-0.029015","-0.933067","0.33431"
"0.6144890000000001","-0.7902100000000001","-0.266084"
"0.542724","-0.591178","-1.2249729999999999"
"0.25299099999999997","-0.658593","-0.710062"
"-0.196517","-0.9568629999999999","-0.322317"
"-0.447579","-0.804292","-0.583428"
"-0.232685","-0.5948479999999999","0.06015499999999999"
"0.158475","0.412132","0.525817"
"-0.074465","1.65028","0.6644399999999999"
"-0.683395","2.262856","0.555524"
"-1.597409","2.182439","0.16868"
"-0.124601","1.777514","0.765551"
"0.920637","1.5245090000000001","-1.507085"
"1.03706","1.748882","-0.7244430000000001"
"0.899862","0.556211","0.49981899999999996"
"0.47815799999999997","-0.6436","0.629249"
"-0.130664","-1.892348","1.0286030000000002"
"-0.088781","-2.109218","1.06426"
"0.231553","-1.998034","1.6365180000000001"
"0.061708000000000006","-1.505355","1.444868"
"0.095863","-1.255591","1.018381"
"0.09254","-0.168444","-0.154608"
"0.005554","0.615919","-1.3294629999999998"
"-0.02839","0.620002","-1.631988"
"0.42062","-1.9199650000000001","0.7206859999999999"
"-0.013887","0.303602","2.0799849999999998"
"-0.23539699999999997","2.430517","2.077075"
"1.281341","1.6809919999999998","2.152028"
"-0.179319","0.477642","-0.112863"
"0.229473","1.009242","1.125432"
"-0.546549","1.174676","-0.066092"
"0.059688","2.188008","0.08541599999999999"
"0.369911","1.586195","0.09741699999999999"
"-0.046383999999999995","0.285078","-1.065484"
"-1.0199479999999999","-0.636356","-1.016953"
"-0.799653","-0.903758","-0.53995"
"0.37741199999999997","-0.770929","0.295525"
"0.775493","-0.8240870000000001","-1.150185"
"0.42279300000000003","-0.617422","-0.921374"
"-0.168268","-0.742333","-0.538776"
"-0.415253","-1.008917","-0.508728"
"-0.41847700000000004","-0.6890430000000001","-0.194615"
"0.030558999999999996","-0.350445","0.252616"
"-0.002124","1.6537540000000002","0.631467"
"-0.389056","2.398602","0.436478"
"-1.206575","2.605412","0.583195"
"-0.570461","2.063956","0.655736"
"0.44442200000000004","1.254564","-1.136888"
"0.9205110000000001","1.695573","-1.007524"
"1.030843","0.673529","0.307612"
"0.65077","-0.343767","0.638933"
"0.007468000000000001","-1.145934","0.8528379999999999"
"-0.274863","-2.156341","1.052322"
"0.341429","-1.9024830000000001","1.347494"
"0.538982","-1.582629","1.614319"
"0.133295","-1.493532","1.201591"
"0.329529","-0.813408","0.501571"
"0.262491","0.057908","-0.23675500000000002"
"-0.084884","0.942349","-1.370096"
"-0.167042","-0.32312399999999997","-0.7287279999999999"
"0.110704","-2.5087040000000003","0.49711099999999997"
"-0.995814","1.7138209999999998","2.585458"
"-1.205103","3.994642","-4.871877"
"2.359142","1.084489","2.1867099999999997"
"0.44199700000000003","0.649017","0.574103"
"-0.32969299999999996","1.193949","0.500153"
"-0.326449","1.166479","0.397615"
"0.172225","1.266082","0.47856000000000004"
"-0.054838","0.6413310000000001","-0.9837670000000001"
"-1.0666280000000001","-0.555507","-0.946724"
"-0.530029","-0.9700700000000001","0.011759"
"0.177866","-0.789982","0.5510470000000001"
"0.517368","-0.898244","-1.0972950000000001"
"0.43660200000000005","-0.558647","-1.028972"
"-0.150778","-0.8236709999999999","-0.53676"
"-0.081727","-1.006826","-0.38350100000000004"
"0.036006","-0.646928","-0.06515399999999999"
"-0.108992","-0.51426","0.002647"
"0.07875399999999999","0.8845049999999999","0.6642140000000001"
"-0.25035100000000005","1.891907","0.681624"
"-0.5677399999999999","2.219795","0.526524"
"-1.5632540000000001","2.478475","-0.014303999999999999"
"0.377294","1.144464","0.150824"
"0.6954739999999999","1.13695","-1.4521879999999998"
"1.013516","1.368694","-0.077773"
"0.6208140000000001","0.25341199999999997","0.535895"
"0.082222","-0.927897","0.739703"
"-0.13528900000000002","-1.796505","1.050192"
"0.32907600000000004","-2.2435009999999997","1.352883"
"0.324581","-1.756319","1.871773"
"0.077463","-1.566799","1.250481"
"0.410689","-0.964669","0.54668"
"0.30532","-0.15717799999999998","-0.364425"
"-0.191545","1.2422540000000002","-1.496392"
"-0.130324","0.000523","-1.610832"
"0.611851","-2.514647","1.390048"
"-0.176654","0.38033","3.092957"
"-0.694838","2.716929","-2.772738"
"1.693483","0.8804059999999999","1.568182"
"-0.346497","0.276493","-0.8673129999999999"
"-0.052004999999999996","1.168256","1.447471"
"-0.477596","2.221429","-0.28912899999999997"
"0.754817","1.838614","0.06652000000000001"
"-0.205735","0.41816000000000003","-1.13675"
"-0.6538609999999999","-0.054030999999999996","-1.1768299999999998"
"-1.134473","-0.821319","-0.7551640000000001"
"0.24560500000000002","-0.743534","0.318889"
"0.375207","-0.8656309999999999","-0.583846"
"0.4023","-0.678837","-1.265232"
"-0.045792","-0.909302","-0.548323"
"-0.049471","-0.9421950000000001","-0.676296"
"0.114422","-0.898767","-0.17210999999999999"
"0.25611","-0.507154","-0.113254"
"0.35738600000000004","-0.142549","0.428933"
"0.57526","1.363872","0.666115"
"-1.550245","2.3426419999999997","0.643858"
"-2.2901439999999997","1.508924","0.088284"
"-0.9933379999999999","1.673053","0.579368"
"0.956859","2.063857","-1.549146"
"1.0301770000000001","2.227599","-1.163082"
"0.602947","1.511385","0.423962"
"0.391514","-0.608845","0.664007"
"-0.078185","-1.416499","0.617827"
"0.08177000000000001","-2.040941","0.954299"
"0.144353","-2.011392","1.3069030000000001"
"0.111822","-1.6406060000000002","1.6953099999999999"
"0.163056","-1.508092","1.359593"
"0.318648","-0.5542739999999999","0.26043"
"-0.142848","0.008667","-0.697994"
"0.292448","0.6627460000000001","-1.9635029999999998"
"0.28212","-1.03817","-0.13334100000000002"
"0.155746","-0.630549","1.107918"
"0.134639","2.020327","1.859822"
"0.624646","0.30386399999999997","1.815118"
"-0.024247","0.515709","0.14768"
"0.41723999999999994","1.234933","0.688409"
"-0.068438","1.5934549999999998","0.324641"
"-0.329683","2.319826","-0.301958"
"0.317195","1.4250399999999999","-0.130082"
"0.044095999999999996","0.393912","-0.599175"
"-0.8279139999999999","-0.394341","-0.9018120000000001"
"-0.864785","-1.109686","-0.598882"
"0.329965","-0.78409","0.468379"
"0.703972","-0.6901609999999999","-0.471337"
"0.5707770000000001","-0.46976999999999997","-1.328258"
"0.15668900000000002","-0.722997","-0.640162"
"-0.334287","-0.8388209999999999","-0.7104090000000001"
"-0.395406","-0.7129260000000001","-0.430496"
"-0.044966000000000006","-0.470321","0.051234"
"0.081057","1.188848","0.6380020000000001"
"-0.142319","1.840411","0.730544"
"-0.8894780000000001","2.9723889999999997","1.029683"
"-0.821608","2.584939","0.276363"
"0.7720560000000001","2.205131","1.281616"
"0.45418100000000006","1.2223680000000001","-1.289395"
"0.731132","0.8431","-0.380942"
"0.669813","-0.44172700000000004","0.591975"
"0.302688","-1.2464389999999999","0.775047"
"0.30298200000000003","-1.773567","1.117782"
"0.17268499999999998","-2.1730709999999998","1.441117"
"0.136782","-1.840063","2.072116"
"0.059987","-1.501776","1.575862"
"0.35323699999999997","-0.594093","0.48368500000000003"
"0.075946","0.207275","-0.387421"
"-0.236565","0.958463","-1.6080649999999999"
"-0.025077000000000002","-0.309996","-0.953996"
"0.502184","-2.394371","0.986182"
"-0.296468","-0.081113","2.66768"
"-0.582645","3.5833720000000002","-3.3042160000000003"
"1.978957","0.962325","2.5335509999999997"
"0.062270000000000006","0.264617","-1.12975"
"0.350167","1.074984","1.038044"
"-0.637592","1.083979","-0.035537"
"-0.064498","1.9369470000000002","0.058164"
"0.47684899999999997","1.252658","0.144071"
"-0.049451","0.346604","-0.999394"
"-1.137055","-0.303462","-1.402806"
"-0.8758239999999999","-0.9216139999999999","-0.309771"
"0.407198","-0.949224","0.550851"
"0.80288","-0.7895449999999999","-1.55084"
"0.474499","-0.60428","-0.848153"
"0.146567","-0.867014","-0.31287800000000004"
"-0.057245000000000004","-0.959","-0.278251"
"-0.318923","-0.58198","-0.220016"
"-0.23348000000000002","-0.5584140000000001","0.152549"
"0.062778","0.624866","0.624919"
"-0.099756","1.656352","0.732332"
"-0.8819879999999999","2.513075","0.47182299999999994"
"-1.148419","2.213083","0.178299"
"0.64823","1.981616","-0.09187999999999999"
"1.027908","1.4916530000000001","-1.0779450000000002"
"1.027244","1.327496","-0.44397700000000007"
"0.731378","0.32066500000000003","0.600612"
"-0.245315","-1.353351","0.715278"
"-0.308586","-1.7182130000000002","0.918579"
"-0.003817","-2.3715490000000004","1.162656"
"0.044558999999999994","-1.9315330000000002","2.039818"
"0.09262100000000001","-1.741542","1.636557"
"0.300467","-0.945743","0.773691"
"0.0905","0.29286999999999996","-0.670167"
"-0.113087","0.8217399999999999","-1.3471799999999998"
"-0.034344","-0.330818","-0.566595"
"0.591366","-2.350548","1.249258"
"0.248518","0.092045","2.515977"
"0.03512","2.122214","2.196742"
"1.47764","2.313446","1.7423400000000002"
"-0.304198","0.152004","-1.3006309999999999"
"0.151193","0.9013260000000001","1.481048"
"-0.674553","2.589296","-0.22335"
"-0.079364","2.534366","-0.667805"
"0.325563","0.503767","-0.39497600000000005"
"-0.634745","-0.07098099999999999","-1.106641"
"-0.917333","-0.563427","-0.96906"
"-0.273326","-0.8253010000000001","-0.176046"
"0.5022220000000001","-0.805812","0.457474"
"0.749202","-0.806111","-1.445438"
"0.285704","-0.50893","-0.848377"
"-0.404436","-0.6173930000000001","-0.399348"
"-0.6307470000000001","-0.723542","-0.577952"
"-0.421671","-0.597785","-0.293417"
"0.110455","0.092762","0.424046"
"0.319594","1.575217","0.605842"
"-0.049631","2.622191","0.784496"
"-1.221336","1.916822","1.142987"
"-0.495596","1.780241","0.701769"
"0.381524","1.3503450000000001","-0.7332890000000001"
"0.72759","1.3428229999999999","-1.055017"
"0.960735","0.871725","-0.033272"
"0.67065","-0.562858","0.763409"
"-0.141037","-1.3031540000000001","0.819844"
"0.045798","-1.899457","1.0294450000000002"
"0.331921","-1.971325","1.3545610000000001"
"0.195122","-1.8042610000000001","1.8785060000000002"
"0.22131900000000002","-0.968563","1.092184"
"0.260525","-0.478592","0.506922"
"-0.20825100000000002","0.649586","-1.0047760000000001"
"-0.154161","0.10740999999999999","-2.2241310000000003"
"0.29265","-0.963559","-0.396927"
"0.41527","-0.7193689999999999","1.58444"
"0.11299000000000001","3.2913669999999997","1.0724420000000001"
"0.104575","3.2852010000000003","1.062366"
"-0.696441","-0.035845999999999996","-1.146539"
"-0.260092","0.198431","0.48008199999999995"
"0.10366900000000001","0.9632139999999999","1.164382"
"0.183544","2.2050669999999997","-0.026756"
"0.47513900000000003","2.326756","0.113357"
"0.34979299999999997","1.240207","-0.530613"
"-0.940311","-0.48800299999999996","-0.5281819999999999"
"-1.047898","-1.0755549999999998","-0.755063"
"-0.07993","-0.845103","-0.40571999999999997"
"0.575563","-0.848166","-0.128842"
"0.705493","-0.878257","-0.740526"
"0.055011000000000004","-0.577529","-0.7291890000000001"
"-0.33921599999999996","-0.717071","-0.501138"
"-0.151759","-0.814261","-0.296331"
"-0.13589500000000002","-0.6169140000000001","-0.32463800000000004"
"-0.171652","-0.493775","0.042874"
"-0.053716999999999994","1.277975","0.371131"
"-0.26252600000000004","2.416866","0.7216560000000001"
"-0.45966899999999994","2.987325","0.5173479999999999"
"-0.248099","2.8143119999999997","0.574362"
"0.049506","0.726038","-1.4639"
"0.31985399999999997","0.927949","-0.978189"
"0.9124540000000001","0.703203","0.009843000000000001"
"0.858416","-0.07203","0.43076800000000004"
"-0.019707","-1.092317","0.8784219999999999"
"-0.23447600000000002","-1.886798","1.194321"
"0.0597","-2.111852","1.483218"
"0.029206","-1.973236","1.83818"
"0.110116","-1.260108","1.441716"
"0.333487","-0.069076","0.21095300000000003"
"-0.037263","0.370682","-0.8077340000000001"
"0.202665","0.285857","-2.01642"
"0.714485","-1.336459","-0.133143"
"0.443441","-1.845347","1.116351"
"0.132359","1.341852","3.9885370000000004"
"0.084388","5.289838","-2.215047"
"0.759212","0.140033","0.768346"
"-0.43247399999999997","-0.711368","-0.6288060000000001"
"0.011812000000000001","1.0456290000000001","0.9701569999999999"
"-0.6833140000000001","2.0919220000000003","-0.020429"
"0.5628380000000001","2.1979599999999997","0.481741"
"0.578753","0.880977","-0.399472"
"-1.1087280000000002","-0.7418319999999999","-1.3045440000000001"
"-0.830263","-0.948253","-0.573199"
"-0.128359","-0.961125","0.20135899999999998"
"0.768708","-0.8982899999999999","-1.263257"
"0.327804","-0.584044","-0.922416"
"-0.12089000000000001","-0.7648560000000001","-0.49963900000000006"
"-0.229001","-0.932529","-0.405515"
"-0.335845","-0.599065","-0.22589299999999998"
"-0.246734","-0.5422","-0.10260599999999999"
"0.224617","1.182502","0.678817"
"0.317307","1.736609","0.736973"
"0.16564","2.173524","0.841615"
"-1.37274","1.90116","0.220362"
"-0.602577","1.794009","0.260626"
"0.8364790000000001","1.64263","-1.436251"
"1.053173","1.3955879999999998","0.150127"
"0.501931","-0.013128","1.1950100000000001"
"-0.167705","-1.198907","0.8552489999999999"
"-0.226838","-2.003071","0.768679"
"0.289665","-2.2915650000000003","1.189444"
"0.13486800000000002","-1.7871240000000002","1.62586"
"-0.038876999999999995","-1.600863","1.520138"
"0.320321","-0.695859","0.607483"
"0.047951","-0.079044","-0.298867"
"0.095478","0.71964","-1.591879"
"0.018698","-0.39060100000000003","-0.72604"
"0.25749299999999997","-2.076977","0.674525"
"0.272204","0.801841","2.7290419999999997"
"-0.438669","3.536125","-2.2555509999999996"
"0.69086","0.446876","1.510729"
"-0.176387","-0.211903","0.289051"
"0.379757","1.037521","1.2402"
"-0.47644","1.45353","-0.498771"
"-0.178176","2.302722","0.276904"
"0.802669","1.5808870000000002","-0.193395"
"0.000975","0.385285","-0.8781200000000001"
"-1.210385","-0.650187","-0.663287"
"-1.0293889999999999","-1.122466","-0.5782729999999999"
"0.167694","-0.8776299999999999","0.14156400000000002"
"0.609043","-0.8445159999999999","-0.898416"
"0.346175","-0.600221","-0.809036"
"0.152478","-0.644091","-0.735712"
"-0.162639","-0.775758","-0.603826"
"0.007734","-0.658786","-0.267867"
"-0.044616","-0.671198","-0.20063399999999998"
"0.367732","1.1209200000000001","0.871707"
"0.24609499999999998","1.550625","0.739788"
"-1.167273","2.924056","0.675103"
"-0.9141540000000001","1.7818049999999999","0.240524"
"0.21129099999999998","1.978144","0.040445999999999996"
"1.174468","1.9599349999999998","-1.099438"
"0.623154","1.016633","0.15483"
"0.342832","-0.218166","0.532634"
"-0.08326599999999999","-1.024967","0.581427"
"-0.041087","-1.649471","0.7086279999999999"
"0.20411400000000002","-2.193784","1.152944"
"0.127324","-2.102486","1.6529209999999999"
"-0.088719","-1.663693","1.813964"
"0.233864","-0.5874020000000001","0.9409379999999999"
"0.304185","-0.091727","0.40247"
"-0.085716","0.773467","-1.283802"
"-0.016112","-0.403352","-1.221435"
"0.380747","-1.5793629999999999","0.085235"
"0.394974","1.23456","2.1219740000000002"
"0.10598900000000001","1.767554","0.957465"
"0.30385","-0.056731","1.272673"
"-0.413","0.301732","-0.068"
"0.24649000000000001","1.102481","0.8353219999999999"
"-0.09006","1.7031040000000002","0.333854"
"0.259675","2.090234","0.20669899999999997"
"0.475258","1.142119","-0.067344"
"-0.222375","0.00033999999999999997","-0.977081"
"-1.243557","-0.71853","-0.9099950000000001"
"-0.7695420000000001","-0.9504309999999999","-0.150497"
"0.353175","-0.653258","0.25504499999999997"
"0.791499","-0.629121","-1.475243"
"0.49055200000000004","-0.514791","-0.872589"
"-0.097453","-0.721891","-0.46782299999999993"
"-0.507958","-0.8427049999999999","-0.754624"
"-0.34427199999999997","-0.653433","0.079709"
"0.26010500000000003","0.382117","0.604267"
"0.063305","1.675168","0.717345"
"-0.812485","2.333699","0.650501"
"-1.528809","1.7190150000000002","0.628393"
"-0.417354","1.8669919999999998","0.131893"
"1.179772","1.784007","-0.892322"
"0.909509","1.596882","-0.466974"
"0.367585","-0.079076","0.835576"
"0.18925799999999998","-0.769436","0.752347"
"-0.10054400000000001","-1.7180540000000002","0.71642"
"0.099725","-2.330225","0.964045"
"0.41823699999999997","-2.0110509999999997","1.35666"
"0.175273","-1.6532830000000003","1.651907"
"0.243402","-1.2386409999999999","1.035092"
"0.353501","-0.319312","0.15570499999999998"
"-0.09778400000000001","0.503163","-0.7458229999999999"
"-0.423958","0.107397","-1.3403969999999998"
"0.246077","-1.5498299999999998","0.935681"
"-0.00534","2.1098220000000003","1.315401"
"0.712938","0.345174","0.859009"
"1.034197","-0.18343900000000002","2.04758"
"-0.198439","0.411972","0.526091"
"-0.178596","1.166142","0.813242"
"-0.580838","1.54739","0.5111479999999999"
"0.178289","2.500307","-0.10518699999999999"
"0.667064","1.0957290000000002","-0.228421"
"-0.261792","0.219256","-0.762781"
"-1.426987","-0.811893","-1.034904"
"-0.810817","-1.091236","-0.5576180000000001"
"0.299412","-0.7035170000000001","0.377483"
"0.744742","-0.75558","-1.490158"
"0.187669","-0.506452","-0.734208"
"-0.21545999999999998","-0.721348","-0.511059"
"-0.335548","-0.947636","-0.42550600000000005"
"-0.23862600000000003","-0.660347","-0.209959"
"0.13342","-0.157581","0.300691"
"0.12004000000000001","1.2941719999999999","0.678281"
"0.024122","1.818271","0.48162200000000005"
"-1.337751","2.6165529999999997","0.8512629999999999"
"-0.952675","2.214068","0.695549"
"0.522785","1.272732","-0.619247"
"0.9678979999999999","1.546386","-1.178485"
"0.7144020000000001","1.050122","0.093563"
"0.292758","-0.284663","0.662697"
"-0.020619","-1.324101","0.818923"
"-0.042631","-1.8014970000000001","1.1124530000000001"
"0.052051","-2.124478","1.403884"
"0.080499","-1.8896080000000002","1.874473"
"0.076593","-1.4107129999999999","1.338098"
"0.183102","-0.670995","0.527602"
"-0.158876","-0.118645","-0.431987"
"-0.29549000000000003","0.730843","-1.858456"
"0.159412","-0.334124","-0.770129"
"0.765423","0.027141000000000002","1.6920369999999998"
"0.736251","2.719426","1.523907"
"0.7292420000000001","-0.812275","1.669399"
"-0.763337","-0.40418899999999996","-0.487296"
"-0.016380000000000002","0.8844139999999999","1.529367"
"-0.865402","1.8682560000000001","0.556479"
"0.11829100000000001","2.822695","0.181996"
"0.9120280000000001","1.8369919999999997","0.05894"
"-0.337681","-0.180127","-1.002861"
"-1.061345","-0.656457","-1.240813"
"-0.547127","-1.09745","-0.51573"
"0.461821","-0.8348709999999999","0.20564000000000002"
"0.656288","-0.789403","-0.353738"
"0.486572","-0.499911","-0.475674"
"-0.346148","-0.601973","-0.6319"
"-0.744186","-0.779093","-0.381738"
"-0.66028","-0.711978","-0.249029"
"-0.153225","-0.25985199999999997","0.055501999999999996"
"-0.0038729999999999997","1.602769","0.91853"
"0.215705","1.611408","0.760968"
"-1.2893290000000002","2.445627","0.47362299999999996"
"-1.257434","1.9191610000000001","0.275111"
"-0.549454","1.739675","0.455632"
"1.238429","1.120182","-0.806899"
"0.8875850000000001","1.0322129999999998","-0.37494"
"0.30497399999999997","0.305234","0.587968"
"6.8e-05","-0.8390719999999999","1.0943829999999999"
"0.12540199999999999","-2.083124","1.087526"
"0.24356999999999998","-2.2953330000000003","1.309715"
"0.166856","-1.801775","1.666868"
"0.15021099999999998","-1.393646","1.2246780000000002"
"0.384384","-0.627116","0.393636"
"-0.03092","-0.08353200000000001","-0.514717"
"-0.40314","0.66422","-1.444269"
"-0.154318","-0.460732","-0.47479499999999997"
"0.078562","-1.371202","0.649455"
"0.037880000000000004","2.478491","1.45546"
"0.895492","0.7067319999999999","1.843793"
"0.195545","0.128891","0.718533"
"0.068314","0.611632","0.60495"
"0.0481","1.4029340000000001","0.818408"
"-0.490522","2.248096","0.002096"
"0.298937","2.261488","0.136163"
"0.49144899999999997","0.772547","-0.13835"
"-0.6254970000000001","-0.063824","-1.140512"
"-1.5457530000000002","-0.865124","-0.8445739999999999"
"-0.629308","-1.006656","-0.41205200000000003"
"0.431874","-0.557096","0.253486"
"0.8855700000000001","-0.643496","-1.581178"
"0.665042","-0.654188","-0.560261"
"0.132235","-0.691175","-0.423563"
"-0.457147","-0.8430040000000001","-0.675574"
"-0.429713","-0.54943","0.019431999999999998"
"0.18684","0.459603","0.536975"
"-0.113668","1.590025","0.677704"
"-0.114156","1.593692","0.769695"
"-1.532306","1.754934","0.480436"
"-0.8696649999999999","1.691943","0.43173"
"0.940074","1.7633450000000002","-0.8691620000000001"
"0.953729","1.726316","-0.301286"
"0.754451","0.339434","0.789221"
"0.044695","-0.9713780000000001","0.5333319999999999"
"-0.163983","-1.681239","0.8754049999999999"
"0.035965","-2.171227","1.090338"
"0.317977","-2.1565939999999997","1.552907"
"0.13706400000000002","-1.6395220000000001","1.588042"
"0.083521","-0.978044","0.9344690000000001"
"0.096162","-0.080649","0.053637"
"-0.235857","0.723547","-0.963824"
"-0.362151","0.36735300000000004","-1.7866349999999998"
"0.589738","-1.729004","0.5243"
"0.035003","-0.592596","1.490756"
"0.266989","3.440351","1.4908190000000001"
"0.203579","1.841859","-0.421109"
"-0.16184500000000002","0.426429","-0.010102"
"0.046751999999999995","0.769231","0.9267290000000001"
"-0.33734400000000003","1.407792","0.413925"
"-0.350353","2.127897","-0.220099"
"0.592884","1.499568","0.195787"
"0.021789","0.42537299999999995","-0.7440479999999999"
"-0.727676","-0.345296","-1.416757"
"-0.885827","-1.023563","-0.794431"
"-0.09415599999999999","-0.7147789999999999","0.11287"
"0.532964","-0.6047060000000001","0.028532"
"0.626509","-0.611102","-1.2712510000000001"
"0.38103899999999996","-0.6373939999999999","-0.676638"
"-0.225046","-0.843892","-0.40929299999999996"
"-0.48755699999999996","-0.766877","-0.28434499999999996"
"-0.11018","-0.527088","0.245396"
"0.046082","1.049137","0.890158"
"-0.184726","1.415975","0.681825"
"-1.280897","1.604874","0.6111989999999999"
"-1.271515","1.8128490000000002","0.584298"
"0.38069200000000003","1.8404759999999998","0.057363"
"1.150242","1.990466","-1.658309"
"0.758657","1.514467","-0.30686199999999997"
"0.48250600000000005","0.347242","0.631853"
"0.127335","-0.694538","0.471026"
"-0.028773000000000003","-1.306706","0.57372"
"0.11675999999999999","-1.575766","0.928717"
"0.307922","-1.698396","1.242069"
"0.07209700000000001","-1.682577","1.540583"
"-0.162824","-1.680924","1.527115"
"0.244664","-0.6874060000000001","0.689706"
"-0.00839","0.191605","-0.339482"
"0.12953299999999998","0.701122","-1.433357"
"0.47288199999999997","-0.6771560000000001","-0.589815"
"0.25650100000000003","-1.261449","1.7747110000000001"
"-0.40422399999999997","2.884143","2.378939"
"-0.40832399999999996","2.872377","2.359995"
"-0.235366","0.59395","-1.032334"
"-0.19068800000000002","0.47983000000000003","0.141926"
"0.017029","1.18546","0.69066"
"-0.067815","2.035398","0.303683"
"0.24213","2.331384","0.5283140000000001"
"0.41206400000000004","1.083042","-0.5370739999999999"
"-1.145359","-0.595723","-0.955312"
"-0.8656959999999999","-1.082618","-0.257116"
"-0.143895","-0.8670479999999999","0.067589"
"0.648143","-0.648479","-1.290758"
"0.328226","-0.6025550000000001","-1.049172"
"-0.021389","-0.899385","-0.376132"
"-0.22369699999999998","-0.869569","-0.645273"
"-0.040338","-0.767853","-0.071755"
"0.249694","-0.315238","0.052765"
"0.31343200000000004","1.079056","0.732161"
"-0.24957600000000002","1.6531189999999998","0.649523"
"-0.6806989999999999","1.9408560000000001","0.5461699999999999"
"-1.592849","1.9741","0.586489"
"0.107652","2.018495","0.8252379999999999"
"0.7001310000000001","1.816757","-1.479203"
"0.6367510000000001","1.8915560000000002","-0.448596"
"0.70881","0.37416","0.757418"
"0.706746","-0.583078","0.55947"
"-0.082957","-1.432788","0.60948"
"-0.20318599999999998","-2.254972","0.89291"
"0.571152","-1.7346119999999998","1.459629"
"0.316836","-1.607212","1.828915"
"0.086048","-1.558316","1.517177"
"0.394529","-0.669459","0.494546"
"0.23409000000000002","0.076048","-0.245223"
"0.014686000000000001","0.969411","-1.228286"
"0.07531399999999999","-0.095243","-0.375899"
"0.21144699999999997","-1.910855","0.802149"
"-0.117949","-0.18574300000000002","2.726394"
"-0.971267","3.279457","-2.733011"
"1.8317740000000002","1.2151049999999999","2.515273"
"-0.438109","-0.016902","-1.3326850000000001"
"0.5962689999999999","0.989287","1.607027"
"-0.40678800000000004","1.4967219999999999","-0.35432199999999997"
"-0.486683","1.7614849999999997","-0.309375"
"0.350097","0.9863370000000001","-0.047115"
"0.055115","0.579795","-0.796034"
"-1.0773549999999998","-0.501844","-0.9387200000000001"
"-1.1730180000000001","-0.844039","-0.652706"
"0.152692","-0.784486","-0.366902"
"0.8631549999999999","-0.753671","-1.265081"
"0.781402","-0.762215","-0.821629"
"0.126227","-0.8698299999999999","-0.370073"
"-0.418376","-0.8017890000000001","-0.580917"
"-0.195202","-0.6522060000000001","0.421347"
"-0.5645359999999999","-0.578372","-0.27122199999999996"
"-0.32308899999999996","0.46763999999999994","0.384358"
"-0.798246","2.359698","0.772405"
"-0.723997","3.434482","0.763817"
"0.386288","2.164271","1.402028"
"0.092428","0.891117","-1.024378"
"0.503257","1.195107","-1.421386"
"0.8836639999999999","1.2451450000000002","-0.244779"
"0.961332","0.252934","0.5882350000000001"
"0.084614","-0.8308559999999999","0.753517"
"-0.25693","-1.668942","0.983972"
"0.03015","-2.268866","1.490337"
"0.186026","-2.153165","2.031823"
"0.07384299999999999","-1.423981","1.9143139999999998"
"0.35229699999999997","-0.36121","0.749169"
"0.13652","0.261594","0.005857"
"0.005106","0.730216","-1.175078"
"0.082162","-0.16781300000000002","-1.490281"
"0.68879","-1.703398","1.022646"
"0.45645600000000003","-0.869833","2.578513"
"-0.830158","3.4986129999999998","1.522867"
"1.524047","1.355705","2.071791"
"-0.455291","-0.052403","-1.091192"
"0.21848","0.315781","1.706741"
"-0.204173","1.904239","0.171983"
"0.508833","1.823378","0.13680699999999998"
"0.292057","1.301218","-0.156069"
"0.044212","1.272202","-1.0804719999999999"
"-0.624603","-0.180921","-1.07979"
"-1.040749","-0.7875300000000001","-0.47215799999999997"
"-0.113197","-0.9561709999999999","0.090098"
"0.655417","-1.0454940000000001","-0.999159"
"0.832575","-0.9076850000000001","-0.61055"
"0.6108100000000001","-0.892608","-0.377896"
"-0.037594999999999996","-0.8778879999999999","-0.503201"
"-0.437184","-0.788954","0.139701"
"0.0621","-0.08532100000000001","0.407903"
"0.027634","0.9702780000000001","0.576523"
"-0.617001","1.856948","0.676967"
"-1.394099","1.7108009999999998","0.640692"
"-1.240907","1.858944","0.165375"
"0.542162","2.019304","1.052294"
"0.718773","1.438476","-1.417294"
"0.682134","1.1435680000000001","-0.043639"
"0.7472880000000001","0.091114","0.657991"
"0.150397","-1.014329","0.536563"
"-0.06956799999999999","-1.53613","0.815491"
"0.125054","-1.789427","0.93661"
"0.421609","-1.737511","1.6946299999999999"
"0.11633900000000001","-1.697698","1.978261"
"0.312556","-1.019242","1.0763209999999999"
"0.302241","-0.182325","0.12103"
"-0.120281","0.681901","-0.882689"
"-0.349654","0.472337","-2.020923"
"0.512347","-1.775253","1.042727"
"0.097885","0.691982","2.660038"
"0.260684","2.439618","-1.714536"
"0.841442","0.520121","1.316638"
"-0.276568","0.201461","-0.313727"
"0.431108","1.113504","1.135609"
"0.011991","1.901185","-0.22415"
"0.027561000000000002","2.185936","-0.330817"
"0.258606","1.29151","-0.200327"
"-0.158896","0.21895","-0.666373"
"-0.91869","-0.448617","-0.750008"
"-0.957808","-0.783569","-0.213246"
"0.127419","-0.651505","0.581896"
"0.681613","-0.676359","-1.423864"
"0.626463","-0.641796","-0.9258540000000001"
"0.48985200000000007","-1.00876","-0.587344"
"0.007097","-0.997468","-0.44533199999999995"
"0.110088","-0.9781709999999999","-0.170816"
"0.47595600000000005","0.04553","0.470763"
"0.316702","1.764498","0.768501"
"-0.7070489999999999","1.52283","0.9040969999999999"
"-1.8650830000000003","1.276571","0.501013"
"-1.215981","1.659462","0.329843"
"0.9117719999999999","1.9797759999999998","0.090213"
"0.9448559999999999","2.039234","-1.1925540000000001"
"0.380183","1.4451559999999999","-0.137571"
"0.680818","0.498439","0.466355"
"0.526476","-0.516513","0.392013"
"-0.086302","-1.8410229999999999","0.548655"
"0.100201","-1.9205169999999998","0.983547"
"0.457276","-1.767207","1.6726439999999998"
"0.270384","-1.88441","1.825175"
"0.298177","-0.8283469999999999","0.845295"
"0.314302","0.049607","0.059998"
"0.111397","0.488861","-0.505737"
"-0.19971","1.0066","-1.466385"
"0.47806499999999996","-1.7070330000000002","0.618095"
"0.10055900000000001","0.74571","2.309291"
"-0.10271199999999998","2.0903150000000004","-0.9535239999999999"
"1.1174629999999999","0.427183","1.497834"
"-0.289719","0.23229499999999997","-0.403988"
"0.24291500000000002","1.1076840000000001","1.284297"
"-0.588908","1.548473","0.302173"
"-0.471749","2.136473","-0.305758"
"0.28562600000000005","2.446934","-0.110542"
"-0.022972","0.427896","-0.752738"
"-0.85856","-0.5519689999999999","-1.103488"
"-1.103813","-0.707832","-0.901476"
"-0.291014","-0.597039","0.07510700000000001"
"0.6330680000000001","-0.671619","-1.129094"
"0.756332","-0.746433","-0.49823500000000004"
"0.602344","-0.92279","-0.45246000000000003"
"-0.11031700000000001","-0.8249479999999999","-0.615785"
"-0.31075","-0.804354","-0.314353"
"0.08568300000000001","-0.376859","0.331919"
"0.028829","1.300699","0.704677"
"-0.434771","1.6756509999999998","0.45193999999999995"
"-1.2313399999999999","1.629173","0.9831059999999999"
"-0.976936","2.198177","0.50515"
"0.634312","2.121836","-0.289244"
"1.182865","1.763826","-1.045388"
"0.627304","1.24704","-0.15166300000000002"
"0.556218","0.23442399999999997","0.592272"
"0.163458","-1.007197","0.643586"
"-0.09105","-1.770398","0.80299"
"0.156832","-1.816448","1.221066"
"0.409585","-1.6885830000000002","1.667059"
"0.102001","-1.55655","1.6973080000000003"
"0.214573","-1.058845","0.9410280000000001"
"0.18073699999999998","-0.379538","0.171995"
"-0.176831","0.287463","-0.856082"
"-0.24668800000000002","0.5341319999999999","-1.350451"
"0.43636499999999995","-1.250326","0.748596"
"0.24627800000000002","-0.289371","1.935403"
"-0.116737","1.65455","-0.72629"
"1.3086440000000001","0.8623799999999999","1.77083"
"-0.205508","0.598884","-0.065096"
"-0.095729","1.0832700000000002","0.839985"
"-0.592136","1.580699","0.45228199999999996"
"0.21507800000000002","2.705019","-0.200318"
"0.706025","2.278306","-0.024722"
"-0.595548","-0.220031","-0.816375"
"-1.826707","-0.944269","-1.27746"
"-0.7537229999999999","-1.07228","-0.051056"
"0.467808","-0.631123","-0.070897"
"0.9629840000000001","-0.742451","-1.0025549999999999"
"0.765597","-0.842261","-0.316193"
"-0.016352000000000002","-0.746506","-0.712286"
"-0.292297","-0.86479","-0.368191"
"-0.075477","-0.569602","0.170758"
"0.05483","0.571214","0.615095"
"-0.639633","1.546437","0.584083"
"-0.699621","1.622383","0.432992"
"-0.991241","2.067603","0.1498"
"0.38513400000000003","2.516171","0.704044"
"1.412072","2.30956","1.254604"
"0.552671","1.231458","-0.92156"
"0.348517","0.493683","0.276455"
"0.443759","-0.536852","0.7348100000000001"
"0.012715","-1.1664860000000001","0.639707"
"0.151676","-1.8352950000000001","1.029514"
"0.44744799999999996","-2.101454","1.480769"
"0.162874","-1.8143169999999997","1.8394139999999999"
"0.265015","-1.128978","1.429599"
"0.32947600000000005","-0.11478800000000002","0.295203"
"-0.22886599999999999","0.678254","-0.758646"
"-0.180898","0.41785900000000004","-1.98653"
"0.7205060000000001","-1.911444","0.744698"
"0.05740700000000001","-0.807483","1.5207629999999999"
"-0.24489299999999997","2.9115889999999998","1.7200360000000001"
"1.7376490000000002","1.1823219999999999","2.1577319999999998"
"-0.151746","0.638048","0.052204999999999994"
"-0.048107","0.43952299999999994","0.7845449999999999"
"-0.185847","1.16182","0.853575"
"-0.27551","2.109934","-0.042864"
"0.521794","1.602144","0.291817"
"0.44961599999999996","0.736187","-0.594679"
"-0.29436100000000004","-0.033641000000000004","-1.2276340000000001"
"-1.029984","-0.7262390000000001","-0.875125"
"-0.631245","-0.786183","-0.12261"
"0.278696","-0.748079","-0.060384"
"0.9518040000000001","-0.8277680000000001","-1.155227"
"0.733288","-0.873758","-0.349603"
"-0.034759","-0.905475","-0.377575"
"-0.232933","-0.776868","-0.341447"
"-0.44359499999999996","-0.558366","-0.07852200000000001"
"0.028127999999999997","0.04042","0.369147"
"-0.072936","1.77747","0.791784"
"-0.237866","2.120327","0.83263"
"-1.1099","2.8863849999999998","1.049164"
"-0.641713","2.00704","0.711763"
"0.44537","1.5502850000000001","-0.722631"
"0.776446","1.7020400000000002","-1.348118"
"0.777647","0.6469189999999999","0.570334"
"0.445906","-0.466042","0.7844180000000001"
"-0.094112","-1.128469","0.9933049999999999"
"-0.112203","-1.874268","1.1516440000000001"
"0.475285","-1.7929099999999998","1.514868"
"0.266936","-1.602233","1.6745990000000002"
"-0.002634","-1.4532100000000001","1.259854"
"0.256742","-0.6138","0.49450500000000003"
"-0.046189999999999995","-0.004034","-0.15959"
"-0.18985","0.665438","-1.296993"
"0.116405","-0.522926","-0.10681500000000001"
"0.5373100000000001","-1.437573","1.152802"
"-0.09888200000000001","3.1829","1.231004"
"0.034511","2.993057","-1.244456"
"0.36170599999999997","0.153502","0.329788"
"0.18161300000000002","0.593171","0.716503"
"-0.092141","1.514895","0.511362"
"-0.340376","2.32527","-0.180378"
"0.604035","1.365456","-0.07737899999999999"
"0.072852","0.46432399999999996","-0.500551"
"-0.720329","-0.150305","-1.0036180000000001"
"-0.887423","-0.7889729999999999","-0.646702"
"-0.13009300000000001","-0.680559","0.121353"
"0.277063","-0.7231449999999999","0.055929999999999994"
"0.538972","-0.734956","-1.41974"
"0.41197","-0.8300200000000001","-0.45525200000000005"
"0.097621","-0.8840110000000001","-0.340533"
"-0.026483","-0.924657","-0.25454099999999996"
"-0.08186900000000001","-0.527929","-0.189911"
"0.021772","-0.632939","0.178203"
"0.201471","1.0958629999999998","0.63578"
"-0.24354099999999998","2.2460720000000003","0.730979"
"-1.019914","2.691621","0.8583729999999999"
"-0.715719","1.596368","0.689986"
"0.200517","1.502991","-0.399633"
"0.576484","1.538884","-0.6125510000000001"
"0.6925020000000001","1.333293","-0.112989"
"0.8763","0.317668","0.452747"
"0.13627","-0.754001","0.617781"
"-0.018112","-1.529839","0.852007"
"0.366772","-1.8673689999999998","1.0899809999999999"
"0.345631","-2.0721130000000003","1.313297"
"0.00944","-1.6633380000000002","1.9424419999999998"
"0.367245","-0.14576","0.600549"
"-0.126774","0.47408999999999996","-0.576996"
"-0.239986","0.479281","-2.0044"
"0.6818489999999999","-1.495375","0.570619"
"0.651116","-1.130781","1.8841830000000002"
"-0.090098","3.020018","1.717672"
"0.188799","2.913116","-1.708448"
"-0.158183","0.148174","0.333418"
"-0.151167","0.796405","1.101659"
"-0.025504","0.991958","1.21133"
"0.078578","2.1600919999999997","-0.069149"
"0.359073","0.616329","-0.20808200000000002"
"0.47984799999999994","0.796643","-0.310751"
"-0.504195","-0.22614099999999998","-0.8781610000000001"
"-0.86618","-0.597338","-0.394861"
"-0.5173800000000001","-0.710298","-0.039005"
"0.665955","-0.860469","-1.037426"
"0.7404729999999999","-0.8220430000000001","-0.725076"
"0.662751","-0.879833","-0.271667"
"-0.180136","-0.903518","-0.640091"
"-0.614143","-0.753251","-0.138106"
"-0.386193","-0.552952","0.13331500000000002"
"0.21962800000000002","0.378716","0.335542"
"-0.030374","1.69392","0.550331"
"-0.23170700000000002","2.1315419999999996","0.57322"
"-1.084603","1.8986990000000001","0.642592"
"0.013472999999999999","1.773665","-0.00755"
"0.43838699999999997","1.8548959999999999","-0.35213"
"0.67145","1.205341","-0.6222409999999999"
"0.713979","0.8356389999999999","0.25244099999999997"
"0.600318","-0.249048","0.62948"
"0.333367","-1.295657","0.8733620000000001"
"0.027932","-2.0034240000000003","1.052977"
"0.063544","-2.356834","1.4704540000000001"
"0.12238800000000001","-1.7768150000000003","1.937846"
"0.428199","-0.94457","0.9850770000000001"
"-0.061452","0.162767","-0.154657"
"-0.370101","0.686417","-1.342934"
"-0.089251","-0.204483","-1.090026"
"0.5273869999999999","-2.678681","1.0629629999999999"
"0.11990999999999999","-0.731541","2.4574130000000003"
"-0.242977","3.513669","-1.125828"
"2.228971","1.873156","3.109468"
"-0.510026","0.00274","-1.783841"
"0.126307","0.493861","1.540909"
"-0.562842","1.465588","0.181543"
"0.404476","1.773972","0.15324100000000002"
"0.477191","1.105402","0.359799"
"0.127753","0.508181","-0.690433"
"-0.5773020000000001","-0.10913800000000001","-1.0569389999999999"
"-1.0424360000000001","-0.833043","-0.43068"
"0.035986000000000004","-0.89649","0.430721"
"0.618537","-0.789024","-0.26361999999999997"
"0.8208989999999999","-0.646165","-1.270426"
"0.417074","-0.713508","-0.474208"
"-0.231704","-0.943212","-0.63899"
"-0.118924","-0.612437","0.104782"
"0.22004400000000002","-0.136399","0.568461"
"-0.22392600000000001","1.634018","0.479915"
"-1.0313370000000002","1.359469","0.798445"
"-1.4513690000000001","0.968835","0.79351"
"-0.29270799999999997","1.876614","0.631649"
"0.816959","2.191745","-0.746831"
"1.120256","1.9252900000000002","-1.230078"
"0.5768909999999999","1.003789","0.375936"
"0.5403020000000001","-0.11516900000000001","0.6387010000000001"
"0.464132","-0.6594720000000001","0.553235"
"0.095921","-1.634385","0.8373440000000001"
"0.14752","-2.075373","1.158185"
"0.241621","-1.956294","1.508527"
"0.24373000000000003","-1.3787260000000001","1.7340659999999999"
"0.301992","-0.434296","0.629788"
"0.027696","-0.14890699999999998","0.082906"
"-0.141846","0.663438","-1.674711"
"0.359018","-1.2008729999999999","0.45838500000000004"
"0.6386539999999999","-0.6873859999999999","1.896047"
"0.24694499999999997","2.4833529999999997","0.85115"
"1.3435709999999998","0.537207","1.743067"
"0.557197","0.7530020000000001","0.674308"
"0.270567","1.074293","0.8016399999999999"
"-0.12331500000000001","1.528577","0.207827"
"-0.387022","1.813163","-0.07170399999999999"
"0.5284260000000001","1.0756940000000002","-0.122744"
"-0.342466","-0.0038929999999999998","-0.739704"
"-0.692308","-0.307489","-0.8920309999999999"
"-0.837275","-0.859094","-0.46715200000000007"
"0.283507","-0.701554","0.393318"
"0.7325659999999999","-0.619173","-0.576497"
"0.605212","-0.585813","-1.132147"
"0.143229","-0.872023","-0.357513"
"-0.08648600000000001","-0.8882","-0.265867"
"-0.178341","-0.780313","-0.137444"
"0.031633","-0.36978099999999997","0.064234"
"0.127207","0.741776","0.6646380000000001"
"-0.26001399999999997","1.211762","0.625101"
"-0.596498","1.38602","0.564755"
"-1.1197840000000001","1.7618200000000002","0.46187700000000004"
"0.571978","2.052129","-0.16837"
"0.8786930000000001","1.952967","-1.2808190000000002"
"0.888141","2.052018","-1.400233"
"0.547063","-0.00081","0.543632"
"-0.11913900000000001","-0.839363","0.40523200000000004"
"-0.242846","-1.054052","0.462611"
"0.38927399999999995","-1.65925","1.006536"
"0.21567600000000003","-1.7809549999999998","1.74645"
"0.156426","-1.8109380000000002","1.814342"
"0.225741","-1.158508","1.450803"
"0.392543","-0.100592","0.51025"
"0.212955","0.163151","0.06354"
"-0.032263","0.48276199999999997","-1.6486330000000002"
"0.5035569999999999","-1.295393","0.089148"
"0.163294","-1.37605","0.069428"
"0.353578","2.552416","2.024803"
"0.984506","0.672746","1.6437959999999998"
"-0.08744","0.156025","-0.402492"
"0.11950999999999999","0.895907","0.808426"
"-0.23430900000000002","1.415454","0.520112"
"-0.32804","2.004849","0.097151"
"0.463512","1.184342","-0.081443"
"0.284304","0.715543","-0.065349"
"-0.257972","0.078141","-0.762033"
"-1.358259","-0.699626","-0.799744"
"-0.399596","-0.8350549999999999","-0.335226"
"0.612163","-0.677267","0.270701"
"0.944515","-0.8165859999999999","-1.321615"
"0.763162","-0.7225060000000001","-0.605049"
"0.40466599999999997","-0.645291","-0.312407"
"-0.272165","-0.8956219999999999","-0.48337600000000003"
"-0.504478","-0.6429630000000001","-0.364908"
"-0.258472","-0.147524","0.281107"
"-0.516514","1.8436169999999998","0.654648"
"-0.33316999999999997","2.3904549999999998","1.121448"
"-0.015694","2.45499","0.9697889999999999"
"0.157579","1.884195","0.948084"
"-0.195001","1.242114","-0.7522340000000001"
"0.46036400000000005","1.198495","-1.1037489999999999"
"0.744271","0.9228059999999999","-0.230675"
"0.777205","-0.050933","0.45783999999999997"
"0.055951","-1.038897","0.656308"
"-0.03274","-1.7235340000000001","1.0236100000000001"
"0.088402","-1.8651529999999998","1.54675"
"0.20915999999999998","-1.828943","1.9201409999999999"
"0.046836","-1.474898","1.8449669999999998"
"0.061319000000000005","-0.135068","0.48923900000000003"
"-0.095924","0.07512200000000001","0.13176300000000002"
"0.140024","0.60213","-1.504828"
"0.23937199999999997","-0.574583","-0.186494"
"0.47480100000000003","-1.220225","0.576099"
"0.422579","0.8405540000000001","2.703001"
"-0.140515","2.9242169999999996","2.4430240000000003"
"-0.37144699999999997","3.754175","-3.279185"
"-0.149759","0.308446","-0.8813040000000001"
"0.153961","0.9378850000000001","0.979508"
"0.05305599999999999","1.2016870000000002","0.505379"
"-0.168567","1.8253709999999999","0.287698"
"0.292831","1.2591629999999998","0.090722"
"-0.331563","0.397599","-1.344902"
"-1.238249","-0.707182","-0.737513"
"-0.8326209999999999","-0.8315030000000001","-0.31664000000000003"
"0.140487","-0.811995","0.42287399999999997"
"0.739296","-0.768731","-1.2594459999999998"
"0.5836060000000001","-0.6465","-0.901126"
"0.282629","-0.765047","-0.130802"
"-0.10421400000000001","-0.773263","-0.46289399999999997"
"-0.408592","-0.622675","-0.20111400000000001"
"-0.181571","-0.232711","0.18467"
"-0.200193","1.329027","0.663646"
"-0.5481050000000001","1.871679","0.867267"
"-0.857332","2.104511","0.987583"
"-1.258726","1.921013","0.509414"
"0.206853","1.936975","0.735375"
"0.8549389999999999","1.730118","-0.07058400000000001"
"0.576306","1.446127","-0.704892"
"0.440696","-0.074375","0.8580260000000001"
"0.24599400000000002","-0.865149","0.8618549999999999"
"-0.138967","-1.239603","0.818812"
"0.112429","-2.012279","1.232107"
"0.111947","-1.8858","1.5088700000000002"
"0.047906","-1.7316220000000002","1.6325040000000002"
"0.373246","-0.765129","0.8313299999999999"
"0.306956","-0.815049","0.7789520000000001"
"-0.049373","0.155299","-0.451829"
"0.029091000000000002","-0.048372000000000005","-0.413517"
"0.057797","-0.820675","0.35996300000000003"
"0.155472","-0.63064","2.303649"
"-0.46864799999999995","2.668259","-0.13386900000000002"
"-0.171206","2.426914","-0.687747"
"0.24082399999999998","0.5658489999999999","0.749566"
"0.376228","1.3852719999999998","0.9209959999999999"
"0.387943","1.346171","0.8518450000000001"
"0.08762400000000001","1.59368","0.022890999999999998"
"0.343415","0.769976","-0.11309300000000001"
"0.050306000000000003","0.386411","-0.5407609999999999"
"-0.953895","-0.5596140000000001","-0.678871"
"-0.8007449999999999","-0.6330319999999999","-0.554951"
"-0.309208","-0.628709","-0.209975"
"0.592006","-0.700124","-0.749955"
"0.523333","-0.7947770000000001","-0.80556"
"0.288589","-0.737703","-0.343949"
"-0.289351","-1.011121","-0.231179"
"-0.446995","-0.7827970000000001","-0.149002"
"-0.575821","-0.653552","-0.177772"
"-0.104048","-0.46115600000000007","0.223012"
"0.32803899999999997","1.233244","0.86015"
"0.298135","1.9876900000000002","0.7795340000000001"
"-1.479211","2.963089","0.830734"
"-0.685276","1.6736950000000002","0.263832"
"0.108366","1.434831","-0.054387"
"0.662937","1.200482","-0.8251729999999999"
"0.49231499999999995","1.017421","0.01962"
"0.454984","0.74868","0.40973100000000007"
"-0.002045","-0.887793","1.025584"
"-0.337214","-1.732117","0.934112"
"-0.05196799999999999","-1.983927","1.034438"
"0.14915699999999998","-1.8195459999999999","1.48749"
"-0.136998","-1.492099","1.383319"
"-0.01105","-1.244509","1.135669"
"0.021178","-0.017627","0.012448"
"0.060812","0.326305","-1.558357"
"0.051262","0.33731300000000003","-1.5407170000000001"
"0.400059","-2.068022","0.832332"
"-0.297668","2.3197349999999997","2.5231630000000003"
"-0.308023","2.305094","2.500327"
"1.444199","1.176302","1.955831"
"-0.125658","0.347637","0.414088"
"0.21976199999999999","0.686016","1.378161"
"-0.38572199999999995","1.4463","0.494179"
"-0.06713200000000001","1.800834","0.341186"
"0.34868899999999997","1.141208","0.340163"
"-0.209037","0.426432","-0.920499"
"-1.09418","-0.72283","-0.734731"
"-1.002328","-0.589665","-0.402686"
"0.39420900000000003","-0.524341","0.624228"
"0.827354","-0.780748","-1.340507"
"0.762526","-0.758935","-1.1837520000000001"
"-0.009739","-0.765792","-0.34438"
"-0.522982","-0.8986719999999999","-0.731878"
"-0.795778","-0.859276","-0.44877399999999995"
"-0.075032","-0.342326","0.474337"
"-0.099004","1.720045","0.706368"
"-0.037196","2.078955","0.825248"
"-1.125646","2.430542","0.986627"
"-0.6174229999999999","1.628941","-0.047241000000000005"
"0.200791","1.367788","-0.359338"
"0.549978","1.5200879999999999","-0.593615"
"0.5202869999999999","0.8324389999999999","0.370107"
"0.41823699999999997","0.298059","0.582815"
"-0.184306","-1.095647","0.786788"
"-0.09727899999999999","-1.4795969999999998","0.876956"
"0.13934100000000002","-1.687804","1.064152"
"0.12460299999999999","-1.907923","1.553148"
"-0.163368","-1.471733","1.508242"
"-0.074809","-1.1393879999999998","1.173245"
"-0.093373","0.275355","-0.166621"
"-0.051188","0.7391220000000001","-1.420743"
"-0.08397400000000001","0.165437","-1.41726"
"0.271221","-1.932131","1.092537"
"-0.143037","2.380504","2.172837"
"-0.33819","3.487306","0.553952"
"0.151246","0.367152","0.26047800000000004"
"-0.318104","0.34907699999999997","0.735412"
"0.073925","0.725117","1.131263"
"-0.338421","1.551554","0.291267"
"0.434277","1.329996","0.5606439999999999"
"0.354941","1.1469610000000001","0.36321"
"-0.232717","0.37408600000000003","-0.8223729999999999"
"-1.087251","-0.620055","-0.6566310000000001"
"-1.081699","-0.6212949999999999","-0.7062189999999999"
"-0.134743","-0.617775","0.36341"
"0.473346","-0.8786510000000001","-0.324193"
"0.58502","-0.8039569999999999","-1.082529"
"0.42992299999999994","-0.814265","-0.334633"
"-0.077474","-0.848562","-0.27324899999999996"
"-0.521964","-0.920626","-0.372774"
"-0.318344","-0.561604","0.288883"
"-0.031192","1.6390810000000002","0.66699"
"-0.027868","1.6473490000000002","0.731763"
"-0.8810469999999999","2.282038","0.8934059999999999"
"-0.941564","1.426801","0.7829189999999999"
"0.132211","1.2757889999999998","-0.047054"
"0.478154","1.618044","-0.73242"
"0.503937","1.259455","0.134741"
"0.489756","0.817325","0.589867"
"-0.005759","-0.650674","0.685081"
"-0.199363","-1.531166","0.8074600000000001"
"-0.151652","-1.9264240000000001","0.8210959999999999"
"0.163497","-2.0416830000000004","1.2821129999999998"
"0.085627","-1.49075","1.361553"
"0.09062","-1.256169","1.1156059999999999"
"-0.0051259999999999995","0.0445","0.019075"
"-0.117076","0.46490200000000004","-1.03029"
"-0.15220999999999998","0.08010700000000001","-1.211216"
"0.085463","-1.422469","0.765247"
"0.145392","0.06055599999999999","2.349177"
"-0.48426899999999995","3.4802470000000003","-0.033076"
"0.372177","0.15450999999999998","0.5300729999999999"
"0.017622","0.356962","0.52768"
"0.472009","0.9560360000000001","1.3349540000000002"
"-0.7247279999999999","1.8256","0.08605299999999999"
"0.139925","1.2344110000000001","-0.021967"
"0.46209399999999995","0.841625","-0.181238"
"-0.46264700000000003","-0.072479","-0.608456"
"-0.816682","-0.403541","-0.619786"
"-1.001106","-0.6014109999999999","-0.653859"
"0.315389","-0.81558","0.408972"
"0.8343950000000001","-0.9070090000000001","-0.583442"
"0.8905430000000001","-0.973808","-0.8961040000000001"
"-0.055416","-0.51568","-0.318349"
"-0.6885560000000001","-1.045475","-0.183107"
"-0.67213","-1.049635","-0.13473800000000002"
"-0.6427689999999999","-0.538903","-0.24005300000000002"
"-0.096978","1.234661","0.577631"
"-0.061173000000000005","1.245707","0.648575"
"-0.069775","2.69397","0.9110860000000001"
"-0.782216","2.123681","0.9940540000000001"
"-0.44081000000000004","2.02914","0.389868"
"0.092377","0.9518629999999999","-0.569839"
"0.719631","0.994128","-0.193959"
"0.727489","1.017161","-0.162957"
"0.023141","-0.613636","0.875308"
"-0.42668199999999995","-1.496628","0.9920950000000001"
"0.059298000000000003","-1.902161","1.142998"
"0.27936500000000003","-1.849784","1.463276"
"0.07750800000000001","-1.3835540000000002","1.610837"
"0.004162","-1.2659610000000001","1.384108"
"0.047741000000000006","-0.033818","0.233152"
"-0.266882","0.617101","-0.943742"
"-0.24848299999999998","0.626549","-1.316662"
"0.299237","-1.67885","0.779887"
"0.20875","1.548678","1.786515"
"-0.21861999999999998","3.4269559999999997","1.401997"
"0.736741","0.19881600000000002","0.9552120000000001"
"-0.372066","0.395431","0.211009"
"-0.116807","0.7656850000000001","0.8956120000000001"
"-0.508184","1.698129","0.272415"
"0.588015","1.601228","0.156701"
"0.642278","1.153383","0.185528"
"-0.316925","0.32834800000000003","-0.419325"
"-1.004557","-0.5976279999999999","-0.684624"
"-1.059497","-0.596449","-0.60319"
"-0.114442","-0.58791","0.07689"
"0.578457","-0.656687","0.266464"
"0.764949","-0.842363","-0.782863"
"-0.010198","-0.609915","-0.578663"
"-0.663626","-0.924217","-0.39458499999999996"
"-0.724043","-1.0555370000000002","0.056484000000000006"
"-0.013772","-0.424332","0.5799529999999999"
"-0.0039689999999999994","1.9598919999999997","0.710316"
"-0.265436","2.0659419999999997","0.661937"
"-1.1102319999999999","1.6360370000000002","0.26878"
"-0.814882","1.6393419999999999","0.5733520000000001"
"-0.192351","1.551984","-0.241443"
"0.647796","1.500512","-0.709112"
"0.746855","1.234756","0.13443"
"0.789664","0.732162","0.566553"
"-0.29273699999999997","-1.09833","0.547168"
"-0.041288","-1.717114","0.7827350000000001"
"-0.024714","-1.7056900000000002","0.7940699999999999"
"0.076403","-1.680218","1.569238"
"0.170953","-1.145368","1.450864"
"0.118504","-1.186693","1.4018329999999999"
"0.0070480000000000004","0.031125","0.080474"
"-0.538118","0.420097","-1.0281360000000002"
"-0.547304","0.429817","-1.0134610000000002"
"0.304971","-0.23861999999999997","1.9593639999999999"
"-0.198791","2.9472009999999997","0.257625"
"0.591529","1.027025","-0.390509"
"-0.10613800000000001","0.45865600000000006","0.19206800000000002"
"-0.242202","1.002055","0.791201"
"-0.424836","1.3236860000000001","0.829039"
"0.141705","1.45594","0.259268"
"0.622499","0.876883","0.467783"
"0.311812","0.885819","0.205879"
"-0.521594","0.009438","-0.8820889999999999"
"-1.137462","-0.539438","-0.8380629999999999"
"-0.9960829999999999","-0.643863","-0.44488900000000003"
"0.22746999999999998","-0.584549","-0.263411"
"0.6998479999999999","-0.672068","-1.164515"
"0.68708","-0.73142","-1.0048700000000002"
"0.278977","-0.9649190000000001","-0.114849"
"-0.402975","-0.8900379999999999","-0.618784"
"-0.603056","-0.9147350000000001","-0.424763"
"0.24515900000000002","0.405482","0.927541"
"0.102644","1.509235","0.621296"
"-0.369849","1.855244","0.58121"
"-1.858554","1.002961","0.075148"
"-1.4332610000000001","1.284621","0.24521700000000002"
"0.090404","1.727064","-0.369675"
"1.241652","2.025691","-0.7444270000000001"
"0.8561280000000001","1.91219","-0.325083"
"0.5089130000000001","0.843166","0.702136"
"-0.190943","-1.182461","0.551465"
"-0.364061","-2.141628","0.884067"
"0.011959000000000001","-2.143567","0.9627979999999999"
"0.125191","-1.9133220000000002","1.742936"
"-0.176803","-1.474336","1.59733"
"0.010616","-1.072283","1.192006"
"-0.14014400000000002","0.172751","-0.16955599999999998"
"-0.428958","0.880704","-1.2541639999999998"
"-0.45769399999999993","0.609761","-1.336119"
"0.506271","-0.846151","1.101064"
"0.719543","0.891231","0.8028649999999999"
"1.264138","-0.36542800000000003","1.908262"
"-0.28286300000000003","0.691195","0.321117"
"-0.21187399999999998","1.517752","0.8320049999999999"
"-0.176759","1.475643","0.765811"
"0.083143","2.132852","0.075619"
"0.455429","0.792192","0.12779400000000002"
"0.447129","0.768019","0.024265000000000002"
"-1.0343799999999999","-0.45401400000000003","-0.740161"
"-1.023396","-0.794492","-0.283883"
"0.071939","-0.693557","0.375341"
"0.746931","-0.749084","-0.7250310000000001"
"0.689894","-0.689655","-0.872842"
"0.506784","-0.765057","-0.42379300000000003"
"-0.46189600000000003","-0.893705","-0.410632"
"-0.5863659999999999","-0.818828","-0.161102"
"-0.40589899999999995","-0.678178","0.09554299999999999"
"0.035287","1.2240280000000001","0.8253389999999999"
"-0.446079","1.648132","0.618687"
"-0.719893","1.938221","0.5816600000000001"
"-1.189508","1.863816","0.619225"
"0.23354499999999997","1.645498","0.047193"
"0.769904","1.7585400000000002","-0.366402"
"0.77964","1.429568","-0.166655"
"0.392467","0.456858","0.65252"
"0.031007999999999997","-0.076984","0.6981930000000001"
"-0.343459","-1.5892680000000001","0.612695"
"0.09492300000000001","-1.940638","0.943142"
"0.262156","-2.0254","1.122169"
"0.026652","-1.561394","1.707689"
"0.043776","-0.786972","1.219904"
"0.118001","-0.332303","0.7070390000000001"
"-0.355178","0.791095","-0.818166"
"-0.336433","0.218383","-1.977106"
"-0.092687","-0.653623","-0.389925"
"0.653926","0.489252","2.055688"
"0.123735","2.156721","1.071295"
"0.537986","-0.0040939999999999995","1.357401"
"-0.33132399999999995","0.713134","1.103932"
"-0.064294","1.0982370000000001","1.0588600000000001"
"-0.40270100000000003","1.499208","0.594169"
"0.447376","1.7902200000000001","0.323788"
"0.595413","0.977109","0.21599400000000002"
"0.032507999999999995","0.647601","-0.091197"
"-0.667037","-0.229911","-1.0308389999999998"
"-1.147385","-0.5578569999999999","-0.9249850000000001"
"-1.111118","-0.650416","-0.6783399999999999"
"0.28064","-0.6614760000000001","0.459571"
"0.7847069999999999","-0.944572","-1.0114610000000002"
"0.768872","-0.960255","-1.002722"
"-0.062917","-0.709762","-0.434407"
"-0.662748","-0.841297","-0.41093999999999997"
"-0.727142","-0.687287","-0.11268399999999999"
"0.098975","0.952926","0.8318139999999999"
"0.039289","1.662886","0.8908469999999999"
"-0.455316","2.454917","1.005053"
"-1.6475939999999998","1.63568","0.494413"
"0.093693","1.6745430000000001","-0.158383"
"0.7464649999999999","1.737324","-0.374638"
"0.549435","1.3074139999999999","-0.20795300000000003"
"0.457305","0.50327","0.537148"
"0.312817","-0.02021","0.662596"
"-0.60259","-1.376156","0.807815"
"-0.286224","-2.0079130000000003","1.023116"
"0.048729","-2.045732","1.095235"
"0.156604","-1.5813979999999999","1.5126"
"0.043451","-1.060624","1.323256"
"0.144875","-0.53555","0.949257"
"-0.269759","0.763433","-0.561342"
"-0.443521","0.454575","-2.050133"
"-0.30488200000000004","-0.448686","-1.0493540000000001"
"0.552596","-0.192222","2.894965"
"-0.125003","2.967866","0.9087209999999999"
"0.8643370000000001","1.0516459999999999","0.23518200000000003"
"-0.6614479999999999","0.061512","-0.8868090000000001"
"-0.254448","0.825873","1.09217"
"-0.44953999999999994","1.3527559999999998","0.630285"
"0.36849899999999997","1.4185","0.244821"
"0.606651","0.7935399999999999","0.35038400000000003"
"0.394399","0.749977","0.22058699999999998"
"-0.509738","-0.13253","-0.73833"
"-0.9533020000000001","-0.792894","-0.552242"
"-0.946217","-0.79483","-0.5960300000000001"
"0.217777","-0.660547","0.4349"
"0.678029","-0.7122890000000001","-1.20279"
"0.580113","-0.681754","-0.7846890000000001"
"-0.320641","-0.760465","-0.224744"
"-0.8471850000000001","-0.82086","-0.276966"
"-0.830692","-0.625467","-0.13356800000000002"
"-0.267371","1.7064650000000001","0.640714"
"-0.5519850000000001","2.130015","0.7322069999999999"
"-0.579619","2.4702599999999997","0.7780560000000001"
"-0.721442","1.080709","0.172463"
"0.158645","1.5078200000000002","0.42018599999999995"
"0.234754","1.57926","-0.37298600000000004"
"0.355064","1.317077","-0.47525"
"0.42310600000000004","0.486833","0.585939"
"0.29485900000000004","-0.099146","0.700191"
"-0.6214689999999999","-1.474148","0.798484"
"-0.048726","-1.8834689999999998","1.004137"
"0.233273","-1.8558830000000002","1.065207"
"-0.13911800000000002","-1.5641459999999998","1.434291"
"-0.05655399999999999","-0.9273","1.13588"
"0.042738","-0.45840200000000003","0.662454"
"-0.21612800000000001","0.528221","-0.813788"
"-0.23000900000000002","0.159012","-1.081761"
"-0.056366999999999993","-0.6477609999999999","-0.00389"
"0.399997","-0.24366999999999997","2.123284"
"-0.674","3.705607","1.834341"
"-0.6791510000000001","3.698775","1.8222909999999999"
"-0.25503000000000003","-0.35430700000000004","0.42236599999999996"
"-0.860569","-0.549227","-0.788007"
"-0.38407199999999997","1.361272","1.276095"
"0.267748","1.7753130000000001","0.661412"
"0.60455","1.282759","0.341196"
"0.40161399999999997","1.2482","-0.18826400000000001"
"-0.65595","0.161431","-0.8087409999999999"
"-1.2595889999999998","-0.69767","-0.580064"
"-1.16683","-0.88649","-0.310841"
"-0.112372","-0.9318350000000001","0.350659"
"0.422232","-0.8793700000000001","-0.559579"
"0.646029","-0.809652","-1.080642"
"0.445121","-0.598453","-0.032023"
"-0.10446099999999998","-0.662361","-0.346045"
"-0.41910600000000003","-0.715009","-0.522837"
"-0.478391","-0.466383","0.059271000000000004"
"0.10584400000000001","1.111459","0.7199840000000001"
"0.08004800000000001","1.634312","0.861809"
"-1.688877","2.555011","1.101567"
"-1.108934","1.009321","0.24259299999999998"
"-0.420696","0.9753069999999999","0.162346"
"0.7306729999999999","1.2483950000000001","-0.805649"
"0.438007","1.365958","-0.41645"
"0.28621399999999997","1.115427","0.013013999999999998"
"-0.09037200000000001","-0.190159","0.6349560000000001"
"-0.22358899999999998","-1.577058","0.778044"
"-0.21068299999999998","-1.561197","0.799945"
"0.115435","-1.881947","1.232048"
"-0.142124","-1.3050329999999999","1.533763"
"-0.16375699999999999","-1.338302","1.4853049999999999"
"-0.25507199999999997","0.06630499999999999","0.29814"
"-0.591971","0.511572","-0.887106"
"-0.48421899999999996","0.398969","-1.49139"
"0.078685","-1.620562","0.702237"
"0.766632","0.646791","2.304232"
"0.447888","3.736797","2.01582"
"1.025183","1.352317","0.063515"
"-0.864492","-0.27671799999999996","-0.8227459999999999"
"-0.718705","-0.053189","0.31383"
"-0.272767","1.416466","0.5142909999999999"
"0.037637000000000004","1.5557889999999999","0.325869"
"0.5358569999999999","1.6731669999999998","0.359579"
"-0.053086","0.890458","-0.066326"
"-0.5088689999999999","0.012489","-0.423746"
"-0.772366","-0.387354","-0.72383"
"-0.824631","-0.8902399999999999","-0.365309"
"-0.19376","-0.6724180000000001","-0.022878"
"0.148621","-0.5743739999999999","0.220683"
"0.399045","-0.9640860000000001","-0.42264399999999996"
"0.089426","-0.692461","-0.618152"
"-0.103326","-0.641848","-0.391466"
"-0.433392","-0.818384","-0.23063699999999998"
"-0.370278","-0.663165","0.023988"
"-0.104245","-0.0085","0.38921300000000003"
"0.177849","1.7643810000000002","0.8288459999999999"
"-1.062901","1.883519","0.622642"
"-1.602598","0.9151530000000001","0.312844"
"-0.541539","1.1395440000000001","0.427126"
"0.30512100000000003","1.310108","0.032779"
"0.559442","1.403461","-0.46096899999999996"
"0.236312","1.074435","0.175879"
"-0.009315","0.387192","0.783433"
"-0.094794","0.072009","0.953469"
"-0.22825700000000002","-0.871743","0.631955"
"-0.169133","-1.22999","0.574113"
"-0.060285000000000005","-1.40124","0.674025"
"0.068075","-1.516477","0.8122010000000001"
"0.194914","-1.010845","1.076994"
"0.189134","-1.03494","1.0452620000000001"
"-0.26913400000000004","-0.310756","-0.24813200000000002"
"-0.18424000000000001","-0.535604","-0.509459"
"-0.162794","-0.508851","-0.473087"
"0.263998","4.975071","1.4813459999999998"
"0.223377","3.6064410000000002","-0.42024799999999995"
"0.49294099999999996","-0.638275","1.5840020000000001"
"-0.360425","-0.348576","-0.011349"
"0.561472","0.9440209999999999","0.74449"
"0.559134","0.9119959999999999","0.7101930000000001"
"0.224216","1.265159","0.380044"
"0.0061979999999999995","1.129959","0.000644"
"-0.018836000000000002","0.7935979999999999","0.053377999999999995"
"0.068008","0.196827","0.06652000000000001"
"-0.162043","-0.12151500000000001","0.018614"
"-0.259424","-0.212069","-0.09780900000000001"
"-0.437808","-0.460085","-0.271434"
"-0.20724299999999998","-0.520746","-0.05516"
"0.019784","-0.707344","0.216414"
"0.394753","-0.9458770000000001","0.416382"
"0.259437","-0.980798","0.134095"
"0.061305","-0.8610760000000001","-0.06538300000000001"
"-0.217113","-0.562846","0.526096"
"0.048349","0.187796","0.717341"
"0.148349","1.19271","0.8504360000000001"
"0.202002","2.086525","0.9326770000000001"
"-0.331985","2.088685","0.377726"
"-0.127064","0.9330860000000001","0.02132"
"0.466574","1.151473","0.022928"
"0.545088","1.6006719999999999","0.327546"
"0.604175","1.424748","0.354106"
"0.198295","0.735362","0.70865"
"-0.09392","0.074463","0.960408"
"-0.152836","-0.270856","0.929465"
"0.093749","-0.9998549999999999","0.614572"
"0.345875","-0.807796","0.599417"
"0.35462899999999997","-0.7256090000000001","0.610751"
"0.281248","-0.84145","0.8440790000000001"
"0.1735","-0.6510729999999999","0.675484"
"0.0075","-0.403875","0.30109400000000003"
"-0.036937","-0.221452","-0.8579209999999999"
"0.566295","-0.8975799999999999","-0.328755"
"0.686975","-1.025925","0.337624"
"-0.322318","1.6387740000000002","1.493688"
"1.122407","2.786119","-0.084463"
"2.780748","1.6971990000000001","0.664642"
"0.433619","0.909791","0.206652"
"0.083261","0.876294","0.066343"
"0.063324","1.0093020000000001","-0.22740900000000003"
"0.498507","1.070201","-0.18099200000000001"
"0.610622","0.6783060000000001","-0.058025"
"0.610642","0.648803","-0.12903599999999998"
"0.598348","0.263153","0.017806"
"0.550582","0.11666199999999999","0.043066"
"0.55118","0.063901","-0.053228"
"0.405823","-0.14166800000000002","-0.01635"
"0.540067","-0.323765","-0.319306"
"0.593449","-0.450716","-0.332339"
"0.6805770000000001","-0.721968","0.036844"
"0.63381","-0.732224","-0.006514"
"0.551837","-0.6830430000000001","0.066711"
"0.47929499999999997","0.039197","0.285511"
"0.38516300000000003","0.588882","0.20279"
"0.280938","0.8849899999999999","0.208371"
"0.640019","1.501559","0.33561199999999997"
"0.9582959999999999","1.535574","0.339407"
"0.963003","1.538619","0.312178"
"0.26243","1.3534979999999999","-0.718292"
"-0.117725","1.264472","-0.761109"
"0.205433","1.14747","-0.5312939999999999"
"0.504774","0.60336","-0.11399100000000001"
"0.51576","0.183581","-0.08806699999999999"
"0.5318149999999999","-0.114008","0.01805"
"0.457925","-0.592245","0.036275999999999996"
"0.42023699999999997","-0.791696","0.086125"
"0.41833000000000004","-0.903265","0.112573"
"0.389494","-1.176131","0.063045"
"0.542117","-1.098511","-0.11813299999999999"
"0.630474","-1.1230069999999999","-0.204158"
"0.616007","-0.922758","-0.41519399999999995"
"0.728234","-0.9639840000000001","-0.478242"
"0.814878","-1.076308","-0.347339"
"0.508149","-0.185678","0.349738"
"0.631509","0.625116","1.319456"
"0.12269400000000001","1.131377","0.445964"
"0.726504","1.4495879999999999","-0.06825"
"0.514332","0.8647969999999999","-0.286065"
"0.47975100000000004","0.973989","0.070167"
"0.200297","1.050915","-0.41867200000000004"
"0.649251","1.065316","-0.473865"
"0.9329879999999999","1.335628","-0.41373699999999997"
"0.446259","1.202604","-0.610823"
"-0.141576","0.359444","-1.062538"
"-0.382952","0.014593","-1.386074"
"-0.408364","-0.790475","-1.424611"
"0.77898","-0.5215350000000001","-0.388387"
"0.8792639999999999","-0.5714229999999999","0.041362"
"0.7438140000000001","-0.724259","-1.108494"
"0.054178","-0.35620300000000005","-1.082705"
"-0.265281","-0.41352700000000003","-1.068503"
"-0.42619300000000004","-0.307023","-0.46841800000000006"
"0.06580599999999999","0.81226","0.008184"
"0.118155","0.796145","0.097723"
"0.280342","2.547316","0.7696189999999999"
"0.7918470000000001","2.223486","0.7957270000000001"
"0.797796","2.1596759999999997","0.14328"
"-0.041682","1.161875","-1.34257"
"0.305023","0.6741689999999999","-0.556111"
"0.5478649999999999","0.46317700000000006","-0.44140100000000004"
"0.648988","-0.7141390000000001","-0.031042"
"0.43520299999999995","-1.14503","0.203904"
"0.382829","-1.296867","0.388598"
"0.045942000000000004","-1.841173","0.673452"
"-0.149117","-1.8960919999999999","0.684675"
"0.06460700000000001","-1.592444","0.488529"
"0.27874099999999996","-1.012674","-0.19438"
"-0.070367","-0.683509","-0.954142"
"0.1728","-0.81871","-1.07447"
"0.322895","-1.228351","0.051883000000000006"
"0.357767","0.527729","1.006958"
"0.145624","1.7825119999999999","0.510219"
"0.48257799999999995","1.3698620000000001","0.14821099999999998"
"0.256421","0.5079560000000001","-0.077415"
"0.528036","0.967767","0.440021"
"-0.663141","0.860022","-0.376249"
"-0.04557","1.35487","-0.486597"
"0.5164270000000001","1.230958","-0.373284"
"0.282862","0.575638","-0.816823"
"-0.218369","-0.045883999999999994","-1.2889540000000002"
"-0.37317","-0.250247","-1.398609"
"-0.331276","-0.770881","-0.9754639999999999"
"0.143179","-0.772736","-0.46965500000000004"
"0.34016","-0.44113199999999997","-0.092799"
"0.253682","-0.57772","-1.537428"
"-0.22790100000000002","-0.5350689999999999","-1.052354"
"-0.527748","-0.583158","-1.029539"
"-0.36995500000000003","-0.7565149999999999","-0.642003"
"-0.176059","0.803237","-0.030368"
"-0.19710999999999998","1.5905790000000002","0.080683"
"-0.053423000000000005","1.552613","0.763212"
"-0.62835","1.483767","-0.139389"
"-0.537809","2.087056","-0.7063010000000001"
"0.501119","1.577189","-0.886549"
"0.396391","1.360527","-0.818651"
"0.588019","0.927477","-0.221404"
"0.48875100000000005","-0.11551800000000001","-0.080193"
"0.017665","-1.5387950000000001","0.108476"
"-0.041514999999999996","-1.8600830000000002","0.17836"
"0.104377","-2.379923","0.594051"
"0.135457","-1.8793389999999999","0.9155540000000001"
"0.047864","-1.576849","0.8006770000000001"
"0.25360900000000003","-0.404851","-0.31649499999999997"
"-0.016399","0.410479","-1.4223290000000002"
"-0.14658800000000002","0.72812","-1.832491"
"0.408945","-1.435908","0.341159"
"0.240105","-0.904216","1.0609540000000002"
"0.006383","1.14981","1.32171"
"-0.10132000000000001","1.3217649999999999","-0.5164"
"-0.419401","0.180056","-0.318035"
"-0.32274200000000003","0.30847800000000003","-0.621318"
"-0.195548","1.267827","0.27938"
"0.325966","1.690954","-0.48761000000000004"
"0.308717","1.716493","-0.578675"
"0.280156","0.790797","-0.690408"
"-0.09124600000000001","0.39019899999999996","-1.187944"
"-0.57321","0.11611300000000001","-1.5126"
"-0.62024","-0.45960200000000007","-0.871625"
"0.000513","-0.410923","-0.031369"
"0.123368","-0.541986","-0.398499"
"0.49612399999999995","-0.603172","-1.2903149999999999"
"0.27928600000000003","-0.552198","-0.7497699999999999"
"-0.067432","-0.607368","-0.968182"
"-0.731291","-0.557249","-0.7507659999999999"
"0.042776999999999996","0.182326","0.058728999999999996"
"0.039213","1.080677","0.138377"
"-0.338589","2.1277909999999998","0.408624"
"-0.618035","1.770227","0.211806"
"-0.305505","1.882098","0.046326"
"0.49654499999999996","1.393139","-1.41729"
"0.48858500000000005","1.595534","-1.0746440000000002"
"0.7315699999999999","1.253847","-0.567321"
"0.297078","-0.634307","-0.02985"
"-0.0008210000000000001","-1.283647","0.172835"
"0.189932","-1.491956","0.310789"
"0.254732","-2.039397","0.925322"
"0.0408","-2.2041060000000003","1.2435200000000002"
"-0.068508","-1.9708599999999998","1.179288"
"0.156415","-0.54114","-0.07671499999999999"
"-0.210577","0.207081","-1.134332"
"-0.328633","0.698548","-1.7789540000000001"
"0.129665","-0.682067","-0.709024"
"0.74428","-1.612592","2.166418"
"0.5079239999999999","0.361147","2.1109419999999997"
"1.0654290000000002","0.487455","0.889882"
"-0.234264","0.158833","-0.691878"
"-0.186083","0.743061","-0.007285"
"-0.468236","1.338681","0.054995"
"0.5551560000000001","1.5760379999999998","-0.138915"
"0.9169700000000001","1.389071","-0.117749"
"-0.09982","0.947206","-0.684104"
"-0.822533","-0.06687799999999999","-1.804466"
"-0.8512190000000001","-0.435159","-1.3351030000000002"
"0.268178","-0.461743","-0.12361400000000002"
"0.485346","-0.478232","-1.120595"
"0.6779029999999999","-0.505814","-1.699734"
"0.571157","-0.641691","-0.869714"
"0.180652","-0.52387","-0.8720610000000001"
"-0.116211","-0.514108","-1.040676"
"0.020000999999999998","-0.354161","-0.015822"
"0.43324399999999996","1.34448","0.40998"
"0.219466","1.447841","0.292014"
"-1.8194569999999999","1.7547990000000002","-0.056424"
"-1.246177","1.560416","-0.419034"
"-0.5141600000000001","1.641809","-0.344857"
"1.278342","2.1609830000000003","-1.479966"
"0.751657","1.6248340000000001","-0.665397"
"0.556031","1.030009","-0.05764"
"0.23906","-0.58892","-0.005536999999999999"
"-0.125389","-1.639472","-0.032796"
"0.019333000000000003","-1.942172","0.12093699999999999"
"0.23151599999999997","-2.366508","0.9089780000000001"
"-0.12903","-1.8620990000000002","1.2684389999999999"
"-0.210527","-1.650202","1.133408"
"0.066346","-0.214428","-0.3985"
"-0.429724","0.499594","-1.510404"
"-0.361565","0.7407","-2.004866"
"0.462237","-1.852155","0.227473"
"0.32695","1.593575","1.141058"
"0.17839000000000002","2.298043","0.628786"
"0.721003","0.11418699999999998","0.8309719999999999"
"-0.5385770000000001","0.26245300000000005","-0.731647"
"-0.134141","0.988924","0.37308800000000003"
"-0.272879","1.688739","-0.21391500000000002"
"0.121169","1.677373","-0.49777200000000005"
"0.480969","0.769273","-0.384626"
"0.454295","0.639709","-0.718096"
"-0.174492","0.130675","-1.139083"
"-0.633147","-0.19175999999999999","-1.40605"
"-0.264231","-0.281406","-0.443675"
"0.475326","-0.400902","-0.129383"
"0.754674","-0.560562","-0.861207"
"0.6376970000000001","-0.5560689999999999","-1.370678"
"-0.14338599999999999","-0.48257799999999995","-1.068599"
"-0.28220500000000004","-0.49399399999999993","-1.146882"
"-0.376781","-0.556425","-0.608205"
"0.229088","0.967074","0.180242"
"0.22221","1.560316","0.244829"
"-0.337596","2.185221","0.27810100000000004"
"-1.524119","2.145191","0.170512"
"-1.2581149999999999","2.287799","-0.432329"
"1.405653","1.430956","-1.162404"
"1.035176","1.269667","-1.189775"
"0.23208","0.368006","0.02882"
"0.269096","-0.668083","0.076655"
"0.327446","-1.567818","0.11759800000000001"
"0.334271","-1.861959","0.318241"
"0.20808800000000002","-2.122459","0.8715069999999999"
"-0.07227599999999999","-1.9709310000000002","1.106287"
"-0.17915599999999998","-1.840282","1.01788"
"0.16529000000000002","-0.500257","-0.131126"
"-0.411497","0.309019","-1.2491940000000001"
"-0.535293","0.824515","-1.7314349999999998"
"0.338075","-1.533289","0.088005"
"0.36306900000000003","-1.6648740000000002","1.1702860000000002"
"-0.121807","0.714467","2.05252"
"2.259874","1.4664059999999999","2.343983"
"-0.624639","-0.018575","-0.507185"
"-0.6362979999999999","-0.151856","-1.176497"
"-0.328887","1.1436870000000001","-0.133383"
"-0.12235399999999999","1.749888","-0.62837"
"0.361336","1.573386","-0.44287200000000004"
"0.237421","0.5323319999999999","-0.760617"
"-0.974025","-0.22712100000000002","-1.219554"
"-0.9608909999999999","-0.193191","-1.279967"
"-0.22767600000000002","-0.5192220000000001","-0.499317"
"0.935124","-0.587227","-0.7775449999999999"
"0.947471","-0.562638","-0.808886"
"0.345036","-0.533717","-1.251136"
"-0.327803","-0.628225","-1.009041"
"-0.24422800000000003","-0.7969390000000001","-0.517083"
"-0.069787","-0.324544","-0.564921"
"0.152077","-0.25090999999999997","-0.301753"
"0.372732","1.387219","0.278562"
"0.173165","2.47484","0.384797"
"-1.448812","2.830101","-0.530192"
"-1.546094","1.785634","-0.482487"
"0.9521959999999999","1.283141","-1.180822"
"1.170366","1.372036","-1.122235"
"0.734838","0.8729540000000001","-0.034894999999999995"
"0.004148","-0.791325","0.47011099999999995"
"-0.41563599999999995","-2.190137","0.5611619999999999"
"-0.350114","-2.398862","0.583428"
"0.298103","-2.0430740000000003","1.013866"
"-0.074432","-1.6719419999999998","0.937448"
"-0.159156","-0.992976","0.334938"
"-0.262667","-0.021236","-0.790608"
"-0.377552","0.4292","-1.384336"
"-0.010978","-0.289984","-1.2134479999999999"
"0.730312","-2.7625740000000003","0.841434"
"0.677765","-2.145916","1.289678"
"0.040202999999999996","3.247739","-0.914744"
"1.3106309999999999","0.43575200000000003","1.2718559999999999"
"-0.885926","-0.145002","-1.61636"
"-0.515942","1.076625","0.7784409999999999"
"-0.070983","1.8160720000000001","-0.136984"
"0.340273","1.474215","-0.234621"
"0.39059299999999997","1.298876","-0.212981"
"0.168759","0.816785","-0.9000049999999999"
"-0.397547","0.015449000000000001","-1.517343"
"-0.642796","-0.305241","-1.398275"
"-0.154943","-0.6556270000000001","-0.314999"
"0.628867","-0.651443","-0.423029"
"0.945984","-0.6005520000000001","-1.347016"
"0.6078100000000001","-0.464001","-1.012035"
"-0.150267","-0.492979","-0.9828180000000001"
"-0.346721","-0.607267","-1.022017"
"0.018852","-0.340577","-0.231648"
"0.247416","1.463854","0.044603"
"0.253116","1.436536","0.10441099999999999"
"-0.724176","2.075705","0.324658"
"-1.2497969999999998","1.3361020000000001","-0.41106099999999995"
"-0.8507370000000001","1.6033110000000002","-0.409279"
"1.202763","1.8596","-1.118829"
"0.861893","1.436888","-0.671532"
"0.62102","1.036362","-0.17627"
"-0.22148099999999998","-1.0254290000000001","0.098083"
"-0.205986","-1.433961","0.138812"
"0.13308599999999998","-1.6914740000000001","0.328957"
"0.447903","-2.126458","0.873216"
"0.136512","-1.804209","1.194968"
"-0.058744000000000005","-1.556235","1.107688"
"0.095481","-0.671379","0.159428"
"-0.299261","0.277079","-1.565909"
"-0.259264","0.296505","-2.004051"
"0.101749","-0.990159","-0.391085"
"0.454403","1.662682","1.050751"
"0.060187","2.232694","0.550257"
"0.650536","-0.268752","1.111909"
"0.251635","0.925225","0.385502"
"0.407733","1.1957790000000001","0.551327"
"-0.589849","1.3123360000000002","-0.459154"
"-0.346301","1.6752939999999998","-0.606452"
"0.400764","1.210677","-0.560766"
"0.267065","0.451798","-0.639404"
"-0.399702","-0.070233","-1.412093"
"-0.5674779999999999","-0.25435599999999997","-1.3440219999999998"
"-0.332007","-0.46944300000000005","-0.588016"
"0.561552","-0.511699","-0.213498"
"0.832111","-0.643143","-1.047758"
"0.21129499999999998","-0.509992","-1.1026200000000002"
"-0.376442","-0.6873279999999999","-0.984634"
"-0.33719299999999996","-0.7510439999999999","-0.740694"
"0.111575","-0.332462","-0.39459"
"0.356902","1.190941","0.15176800000000001"
"0.337281","1.6429349999999998","0.146093"
"-0.721367","1.846296","0.818621"
"-1.46157","1.58804","-0.627313"
"-0.8618309999999999","1.7483529999999998","-0.544107"
"1.244326","1.610647","-1.4753209999999999"
"0.910847","1.512777","-0.585803"
"0.615204","0.9378610000000001","-0.023006"
"0.124649","-0.8769879999999999","0.10603399999999999"
"-0.236184","-1.290666","0.11878399999999999"
"-0.21531799999999998","-1.508512","0.147753"
"0.227979","-2.104548","0.677354"
"-0.049056","-1.814658","1.150843"
"-0.086263","-1.8242150000000001","1.10109"
"-0.063178","-0.138722","-0.373816"
"-0.25426","0.283896","-1.009042"
"-0.27369499999999997","0.427188","-2.120542"
"0.21687199999999998","-1.868925","0.145217"
"0.533385","-0.3756","1.405148"
"0.108154","3.061472","0.757078"
"0.395203","-0.192004","0.481662"
"-0.34267800000000004","0.570416","-0.179893"
"0.197821","1.036907","0.514745"
"-0.313073","1.218251","-0.064443"
"0.219514","1.5785209999999998","-0.427137"
"0.275025","0.943103","-0.44270600000000004"
"-0.016745","0.414602","-0.851675"
"-0.693144","-0.082912","-1.4254959999999999"
"-0.871239","-0.378386","-1.509508"
"-0.596957","-0.340621","-0.917559"
"0.7938310000000001","-0.541117","-0.20803600000000003"
"1.033281","-0.569513","-0.674431"
"0.66456","-0.392448","-1.021935"
"-0.25560700000000003","-0.5025930000000001","-1.1219290000000002"
"-0.5354479999999999","-0.72491","-1.197702"
"-0.29112899999999997","-0.409921","-0.177538"
"0.12906700000000002","1.234889","0.002018"
"0.104974","1.902123","0.043958"
"-0.466949","2.0398650000000003","0.895072"
"-0.685539","1.8244900000000002","-0.540995"
"-0.385098","1.963181","-0.538862"
"0.562127","1.405201","-1.1655209999999998"
"0.660101","0.9051170000000001","-0.340806"
"0.64864","0.544479","-0.066643"
"0.07508200000000001","-0.999923","0.286321"
"-0.121724","-1.5536020000000001","0.178171"
"-0.05786","-1.803697","0.183692"
"0.311379","-2.109857","0.7006180000000001"
"0.033852999999999994","-1.903805","1.100854"
"0.069574","-1.626023","0.9638450000000001"
"0.046088","-0.052111000000000005","-0.403073"
"-0.269389","0.41933400000000004","-1.509055"
"-0.319175","0.226296","-1.741096"
"0.45911499999999994","-1.919634","1.110272"
"0.127458","-0.786464","2.291868"
"-0.29593600000000003","1.2831860000000002","2.35439"
"2.063659","1.644893","2.4371970000000003"
"-0.22587800000000002","-0.453805","-2.575144"
"-0.046934","0.038041000000000005","-0.611279"
"-0.24622199999999997","1.3649790000000002","0.055573000000000004"
"0.086345","1.529794","-0.199434"
"0.206213","0.9088209999999999","-0.04949"
"-0.368184","0.410955","-1.8277990000000002"
"-0.551625","0.160219","-1.654575"
"-0.645887","-0.635848","-0.8913200000000001"
"0.205958","-0.706534","0.021273"
"0.6252810000000001","-0.568133","-1.53949"
"0.528825","-0.49154499999999995","-1.7810400000000002"
"0.378745","-0.654089","-1.049018"
"-0.197432","-0.6290100000000001","-1.036191"
"-0.20411400000000002","-0.7054520000000001","-0.7859970000000001"
"-0.12745599999999999","-0.385761","-0.522961"
"0.329017","0.844181","0.26074899999999995"
"0.43023500000000003","1.681214","0.31171"
"-0.5199779999999999","3.298802","0.5950409999999999"
"-1.3365850000000001","1.4908290000000002","-0.343507"
"-0.721582","1.576427","-0.518369"
"0.78381","1.37405","-1.1578700000000002"
"0.659683","1.217013","-0.743163"
"0.612166","0.9974040000000001","-0.19341"
"0.29897399999999996","-0.44516700000000003","0.45537799999999995"
"-0.193712","-1.817736","0.622096"
"-0.22597399999999998","-2.477467","0.408531"
"0.406337","-2.2273959999999997","0.792787"
"0.16589600000000002","-1.6826150000000002","1.012154"
"-0.04","-1.541973","0.893919"
"0.097443","-0.373628","-0.245606"
"-0.21715","0.24216300000000002","-1.37739"
"-0.191722","0.290095","-1.7970150000000003"
"0.36334","-2.017157","0.21464299999999997"
"0.097735","-1.08008","1.191365"
"0.109492","0.671856","2.048892"
"1.464302","2.126507","2.1434509999999998"
"0.176209","-0.14962","-1.011325"
"-0.139128","-0.29586","-1.188719"
"0.08432","1.076627","0.141984"
"-0.546447","1.546117","-0.38208600000000004"
"-0.046412","1.449589","-0.266948"
"0.432388","1.0016479999999999","-0.670938"
"-0.21356","0.391422","-1.605608"
"-0.450664","0.140164","-1.673804"
"-0.30890500000000004","-0.734067","-0.459334"
"0.5984430000000001","-0.583892","-0.24566300000000002"
"0.80862","-0.595379","-1.200482"
"0.733716","-0.6125649999999999","-1.187103"
"-0.06211799999999999","-0.610981","-0.929741"
"-0.20086800000000002","-0.714246","-0.888809"
"-0.40781300000000004","-0.678196","-0.534401"
"0.436895","1.243825","0.294977"
"0.568238","1.849768","0.26004299999999997"
"-0.161663","2.241694","0.6530090000000001"
"-1.611505","1.049661","-0.530057"
"-1.253107","1.362177","-0.775733"
"0.870086","1.8359860000000001","-0.813754"
"0.953968","1.33314","-0.637555"
"0.617483","0.8780110000000001","-0.122004"
"0.330673","0.059754999999999996","0.262658"
"-0.048395","-1.49211","0.257046"
"-0.137455","-1.9621419999999998","0.453608"
"0.186585","-2.335055","0.6676"
"0.146378","-1.7488130000000002","1.103102"
"0.009040000000000001","-1.587132","1.0799530000000002"
"0.094861","-0.5810310000000001","0.09852000000000001"
"-0.6203609999999999","0.273032","-1.559137"
"-0.35126199999999996","0.147866","-1.8561020000000001"
"-0.150627","-1.268542","-0.274231"
"0.647894","-0.913855","1.9457959999999999"
"0.21867399999999998","1.036602","2.213263"
"1.746761","1.685927","1.739269"
"-0.118531","-0.464056","-0.7506970000000001"
"-0.494579","-0.557144","-1.276089"
"0.092456","1.171409","0.281557"
"-0.178349","1.630364","-0.44636899999999996"
"0.214243","1.7229139999999998","-0.059026"
"0.434518","1.375981","-0.535714"
"-0.21881799999999998","0.148612","-1.987236"
"-0.770738","-0.11239500000000001","-1.392509"
"-0.39273600000000003","-0.736789","-0.49262700000000004"
"0.7606149999999999","-0.646055","-0.37890100000000004"
"1.047827","-0.78299","-1.3277700000000001"
"0.5783119999999999","-0.418055","-0.895978"
"-0.21646999999999997","-0.41573000000000004","-1.097637"
"-0.5491","-0.6018220000000001","-0.979684"
"-0.040947000000000004","-0.55708","-0.201049"
"0.12398900000000002","-0.087876","-0.065912"
"-0.092501","1.459054","0.138126"
"-0.51043","2.108982","0.046491000000000005"
"-0.928155","2.116699","0.020653"
"-0.22503800000000002","1.799885","0.179015"
"0.730083","1.361639","-1.4855690000000001"
"0.62108","0.974635","-0.41543599999999997"
"0.385544","0.16785899999999998","0.394554"
"0.002036","-0.773888","0.373845"
"-0.144324","-1.36972","0.33352800000000005"
"0.00569","-1.466294","0.339518"
"0.20836799999999997","-2.27849","0.46334200000000003"
"0.085901","-1.894675","0.958619"
"0.176722","-1.52424","0.8256680000000001"
"-0.170212","0.25561500000000004","-0.8597950000000001"
"-0.13020199999999998","0.266313","-2.194844"
"-0.130822","0.269985","-2.120126"
"0.356188","-0.629777","3.226043"
"-0.364823","1.258178","2.410211"
"0.48602399999999996","3.1637310000000003","-1.340496"
"0.493384","0.542063","0.340673"
"0.128967","0.254864","-0.152531"
"0.20594","0.783243","0.514808"
"-0.18126099999999998","1.403404","-0.582813"
"0.199257","1.313428","-0.237289"
"0.44759799999999994","1.2854809999999999","-0.558141"
"-0.594276","0.11777699999999999","-1.574629"
"-0.9861620000000001","-0.572765","-1.089855"
"-0.5561","-0.7374069999999999","-0.5036609999999999"
"0.718709","-0.7537189999999999","-1.224509"
"0.6279319999999999","-0.52699","-1.3003049999999998"
"0.420289","-0.560659","-0.851808"
"-0.384862","-0.5529029999999999","-1.051888"
"-0.440788","-0.6702819999999999","-0.387341"
"-0.010815","-0.674167","-0.056464999999999994"
"0.372598","0.554412","0.088651"
"0.048239","2.072753","0.15851099999999999"
"-0.5339109999999999","2.268034","0.318"
"-0.992283","1.5153940000000001","-0.569005"
"0.277208","1.344551","-0.674521"
"0.771386","1.412416","-0.900241"
"0.644578","1.219414","-0.337519"
"0.381944","0.466876","0.426465"
"0.270828","-0.075542","0.41844"
"-0.236442","-1.420025","0.23830500000000002"
"0.08267200000000001","-1.9860939999999998","0.458207"
"0.220669","-2.2002639999999998","0.57109"
"0.22724299999999997","-1.8379169999999998","1.011197"
"0.32158400000000004","-0.8886729999999999","0.377471"
"0.060158","-0.41351099999999996","-0.35173699999999997"
"-0.11408599999999999","0.333712","-2.015634"
"0.127676","-1.263193","-0.169325"
"0.48597299999999993","-1.8349849999999999","0.20077899999999999"
"-0.5045350000000001","2.4001","1.8929779999999998"
"0.8712719999999999","1.2698129999999999","0.346035"
"0.664917","0.000153","1.0044469999999999"
"0.431638","0.591093","0.801005"
"0.098734","1.181316","0.20413800000000001"
"-0.049345","1.055612","-0.430775"
"-0.187726","1.2583280000000001","-0.191886"
"0.254423","0.779269","-0.549999"
"0.215928","0.8144020000000001","-0.6394890000000001"
"-0.8367870000000001","-0.558604","-1.34134"
"-0.52852","-0.49216000000000004","-0.8169029999999999"
"-0.058135","-0.46584799999999993","-0.355744"
"0.835216","-0.770456","-1.269528"
"0.34381999999999996","-0.41731999999999997","-1.016883"
"0.05944","-0.514885","-0.8911600000000001"
"-0.407084","-0.768613","-0.809819"
"-0.440255","-0.723128","-0.534701"
"-0.270723","-0.493284","-0.181535"
"0.10616199999999999","1.192672","0.054414"
"0.1905","1.603712","0.18129800000000001"
"-0.451167","2.686874","0.583728"
"-1.589143","2.047713","-0.047539"
"0.087157","1.484047","-0.54787"
"0.8164819999999999","1.28162","-1.522686"
"0.7296229999999999","1.1694879999999999","-0.736641"
"0.088574","-0.361646","0.26321100000000003"
"-0.279071","-1.024009","0.427071"
"-0.438223","-1.702118","0.27874299999999996"
"0.007936","-2.029731","0.7568050000000001"
"0.12601600000000002","-2.1891830000000003","0.8879469999999999"
"-0.389151","-1.439316","1.077099"
"-0.060592999999999994","-0.331983","0.250722"
"-0.269395","-0.003088","-0.381808"
"-0.006236","0.163819","-2.457479"
"0.539338","-1.561174","-0.119914"
"0.757484","-2.568521","0.423984"
"-0.000301","2.355664","2.478513"
"0.818886","3.399953","-2.729132"
"0.842733","1.272319","0.678484"
"-1.0665200000000001","-1.0846","-0.572704"
"-0.014212","1.290365","0.5789920000000001"
"0.12233599999999999","1.480716","0.21231799999999998"
"0.273991","1.283909","-0.214534"
"0.342474","0.986449","-0.651339"
"0.368818","0.606544","-1.29904"
"-0.41697399999999996","0.09089","-0.880832"
"-0.7515069999999999","-0.574521","-1.110737"
"-0.49061099999999996","-0.723599","-0.572876"
"0.765087","-0.809376","-1.234253"
"0.731035","-0.764991","-1.257144"
"0.554384","-0.6120399999999999","-1.084241"
"-0.519475","-0.581522","-0.87959"
"-0.653841","-0.559041","-0.554932"
"-0.419896","-0.517786","-0.40891"
"-0.05019","1.500615","0.086921"
"0.070936","2.035457","0.148431"
"-0.078055","3.022737","0.258399"
"-0.7443390000000001","2.0113380000000003","0.229649"
"0.4019","1.442197","-0.6432859999999999"
"0.488911","1.038342","-0.8956620000000001"
"0.541836","0.8653629999999999","-0.539429"
"0.002433","-0.151179","0.144842"
"-0.241227","-0.780718","0.311372"
"-0.33281","-1.608531","0.284346"
"0.150347","-2.8591290000000003","0.8162729999999999"
"0.128334","-2.543916","1.122439"
"-0.085128","-1.7053900000000002","1.1143299999999998"
"-0.018946","0.045857","-0.138621"
"-0.235248","0.42225","-0.8630909999999999"
"-0.249212","0.664678","-2.189819"
"0.43168","-2.333589","0.28077399999999997"
"0.196691","-2.072151","0.669786"
"-0.273967","2.3845099999999997","0.554271"
"1.189111","0.955729","0.667305"
"0.650197","-0.006448000000000001","0.37943000000000005"
"-0.166613","0.249558","0.42500299999999996"
"-0.14568599999999998","1.2068139999999998","0.33082"
"-0.38217199999999996","1.615718","-0.140155"
"0.202241","1.082765","-0.173344"
"0.47080299999999997","0.9903719999999999","-0.56801"
"0.24688400000000002","0.8541059999999999","-0.9516110000000001"
"-0.5761649999999999","-0.255265","-1.090025"
"-0.719352","-0.642425","-0.782357"
"-0.501657","-0.717436","-0.644107"
"0.426063","-0.642045","-0.9879209999999999"
"0.509356","-0.556668","-1.316195"
"0.342425","-0.478575","-0.904479"
"-0.480426","-0.574493","-0.9919600000000001"
"-0.631733","-0.54033","-0.568542"
"-0.43913599999999997","-0.55171","-0.42989700000000003"
"0.011404000000000001","1.407081","0.147162"
"-0.300308","2.249709","0.108655"
"-0.408147","2.4827790000000003","0.29896100000000003"
"-0.307762","1.950546","0.259432"
"0.26116500000000004","1.543727","-0.80795"
"0.23748699999999998","1.4451559999999999","-0.891083"
"0.655013","0.824428","-0.597971"
"0.268586","-0.22512","0.289584"
"-0.089866","-0.833224","0.317131"
"-0.38354299999999997","-1.6689310000000002","0.3831"
"0.25041199999999997","-2.291673","0.537169"
"0.317831","-2.2460150000000003","0.727176"
"0.19051300000000002","-1.678881","1.158925"
"0.27689899999999995","-0.192382","0.012918"
"-0.206394","0.070663","-0.613421"
"-0.406","0.574257","-1.962437"
"0.353783","-2.045115","0.330993"
"0.389797","-2.461232","0.590811"
"-0.778857","2.382852","0.876834"
"-0.357096","2.40373","-2.860779"
"0.643985","0.403711","0.31699"
"0.089897","0.143817","-0.06275800000000001"
"-0.004728","1.0997569999999999","0.20336600000000002"
"-0.619256","1.103389","-0.325707"
"0.372924","1.1128120000000001","0.015406999999999999"
"0.511104","1.224704","-0.298047"
"0.118103","0.9292549999999999","-1.2469219999999999"
"-0.747264","-0.0038020000000000003","-1.310708"
"-0.577184","-0.8298629999999999","-0.731777"
"-0.06096699999999999","-0.793994","-0.428393"
"0.850931","-0.64637","-1.4965389999999998"
"0.509683","-0.466429","-1.066083"
"0.153612","-0.416851","-0.843829"
"-0.644324","-0.58549","-0.948477"
"-0.309108","-0.705965","-0.418055"
"0.09589299999999999","-0.368237","-0.077582"
"0.277875","2.033191","0.172272"
"-0.375771","2.1882669999999997","0.461246"
"-0.9789329999999999","1.245894","0.789183"
"-0.742421","1.610651","-0.5160279999999999"
"0.356589","1.7747939999999998","-0.7015319999999999"
"0.6957479999999999","1.639457","-0.983342"
"0.347945","0.875467","0.026986000000000003"
"0.11895","0.187102","0.488321"
"-0.029800999999999998","-0.377808","0.445741"
"-0.022895","-1.867768","0.238105"
"0.181349","-2.382463","0.475583"
"0.21190799999999999","-2.417042","0.654648"
"0.072977","-1.688616","1.132778"
"0.22928400000000002","-0.638686","0.025222"
"0.019175","-0.333463","-0.511103"
"-0.06878","0.145817","-1.451208"
"0.171435","-1.258684","-0.38907600000000003"
"0.22405799999999998","-1.526031","0.46907600000000005"
"-0.6191720000000001","2.109474","1.128334"
"-0.563413","2.987227","-3.5542800000000003"
"0.7822180000000001","0.738442","0.582791"
"-0.09536599999999999","0.107201","-1.052934"
"-0.322402","1.25865","-0.120099"
"-0.512211","1.5300799999999999","-0.609166"
"0.322519","1.352975","-0.11158599999999999"
"0.07665599999999999","0.943241","-0.9701690000000001"
"-0.132884","0.9465979999999999","-1.4520440000000001"
"-1.0604209999999998","-0.321886","-1.436962"
"-0.41566499999999995","-0.729535","-0.698418"
"0.11173699999999999","-0.6075729999999999","-0.397967"
"0.879336","-0.568342","-1.4265700000000001"
"0.597605","-0.641358","-0.8278620000000001"
"0.180652","-0.458874","-0.806605"
"-0.392637","-0.590824","-1.096488"
"-0.668995","-0.50413","-0.405213"
"-0.305398","-0.355105","-0.179497"
"-0.16034400000000001","1.190896","0.046757"
"-0.46064700000000003","2.35596","0.866361"
"-0.655392","1.9957189999999998","0.57162"
"-0.43730399999999997","1.921183","-0.599114"
"0.17440899999999998","1.8373680000000001","-1.0053590000000001"
"0.40052600000000005","1.513384","-1.044885"
"0.527805","0.48661499999999996","-0.218586"
"0.442862","-0.349963","0.173674"
"0.100803","-0.790538","0.267979"
"-0.120376","-1.9657689999999999","0.5176350000000001"
"0.046318","-2.352346","0.915065"
"0.000231","-2.325914","1.2277850000000001"
"0.038781","-1.696148","1.386247"
"0.223322","-0.219782","0.073495"
"-0.18983599999999998","0.148302","-0.517645"
"-0.22711900000000002","0.657863","-2.499889"
"0.474896","-1.8066349999999998","0.029580000000000002"
"0.380575","-2.055866","0.18069200000000002"
"-0.283817","1.7281540000000002","1.817853"
"0.616031","0.43695500000000004","0.33894"
"0.473988","0.055852","0.441683"
"0.269192","1.106411","0.463963"
"-0.13869","1.634795","-0.41461899999999996"
"-0.285629","1.953398","-0.630202"
"0.139547","1.077093","-0.817978"
"-0.23698400000000003","0.679304","-1.006857"
"-0.527044","0.328465","-1.2788190000000002"
"-0.805481","-0.682832","-0.9086209999999999"
"-0.13649","-0.9550120000000001","-0.28108"
"0.267407","-0.629155","-0.5539810000000001"
"0.719014","-0.412364","-1.925771"
"0.35525300000000004","-0.42526800000000003","-0.846817"
"-0.211338","-0.562898","-0.864397"
"-0.331086","-0.673571","-0.5299"
"-0.329273","-0.439288","-0.517428"
"-0.262324","-0.40762600000000004","-0.229235"
"-0.24466999999999997","0.985308","0.086487"
"-0.791197","2.02526","0.5386"
"-1.152857","2.461606","0.520748"
"-0.6911390000000001","2.457368","-0.30497199999999997"
"0.576338","1.964914","-1.026814"
"0.5486449999999999","1.7421509999999998","-1.317156"
"0.6103609999999999","0.647692","-0.496295"
"0.155962","-0.894854","-0.017337"
"-0.211019","-1.224997","0.027391000000000002"
"0.388863","-1.8464470000000002","0.740873"
"0.20490799999999998","-2.0226990000000002","1.394449"
"0.050349","-1.9140270000000001","1.630875"
"0.173797","-1.382077","1.427737"
"0.329226","-0.336905","-0.046952"
"-0.297958","0.254353","-0.872765"
"0.008218000000000001","0.6793020000000001","-1.944141"
"0.420358","-1.467414","-0.069741"
"0.16130999999999998","-1.600852","0.650705"
"-0.565729","0.002629","3.154218"
"-1.1012979999999999","2.9614380000000002","-4.234921"
"1.233808","2.226516","2.9431529999999997"
"-0.24267199999999997","0.628997","-1.994289"
"0.277047","1.6970319999999999","-0.079286"
"-0.430341","1.511732","-0.714557"
"0.126349","1.058367","-0.478526"
"0.245194","1.095261","-0.720087"
"0.490167","1.708225","-1.132911"
"-1.230982","-0.51143","-1.37543"
"-1.149238","-0.9904870000000001","-0.57244"
"-0.37935","-0.9040969999999999","-0.245027"
"0.9343440000000001","-0.569955","-1.35505"
"0.74515","-0.594054","-0.80534"
"0.364194","-0.7661100000000001","-0.706196"
"-0.328858","-0.22537600000000002","-1.152503"
"-0.298079","-0.41540600000000005","-0.834261"
"0.028957","0.498275","0.027306999999999998"
"-0.41391300000000003","2.00263","0.33989400000000003"
"-1.118946","2.307142","1.278511"
"-1.538132","1.759163","0.8664860000000001"
"0.09635099999999999","2.1141650000000003","-0.556048"
"1.0235610000000002","2.399885","-2.442536"
"0.584435","2.041821","-1.74927"
"0.650704","0.254094","0.24498899999999998"
"0.545337","-1.1863860000000002","0.07901799999999999"
"0.312291","-1.626709","0.44332200000000005"
"0.010787999999999999","-1.911473","1.03368"
"0.06608","-1.867845","1.561987"
"-0.016308","-1.939295","1.7797479999999999"
"0.042301","-1.9010240000000003","1.0132700000000001"
"0.193187","-1.039308","0.17488599999999999"
"-0.07535700000000001","-0.125032","-0.598879"
"-0.210648","1.252759","-1.9379650000000002"
"0.148355","-0.049046","-1.355733"
"0.56137","-1.2261600000000001","0.10518599999999999"
"0.26703499999999997","1.308088","1.481544"
"0.5123810000000001","-0.333537","1.3597629999999998"
"-0.205289","-0.020138999999999997","0.671962"
"-0.07166900000000001","0.7136279999999999","0.50949"
"-0.32739","2.13009","-0.606544"
"-0.45894300000000005","2.432441","-0.439687"
"0.000233","2.081594","-0.790936"
"0.026208","0.790824","-0.885228"
"-0.614104","0.434305","-1.1911450000000001"
"-1.174628","-0.9199","-0.7085060000000001"
"-0.14310599999999998","-0.778566","-0.37477"
"0.345937","-0.429613","-0.41651800000000005"
"0.858698","-0.24129299999999998","-1.399348"
"0.383427","-0.63541","-0.860376"
"0.075393","-0.686415","-0.9679479999999999"
"0.092481","-0.562349","-0.659771"
"-0.187114","-0.277952","-0.58843"
"-0.274564","-0.518795","-0.30622699999999997"
"-0.160225","0.677481","-0.013815000000000001"
"-0.63717","2.200453","0.063514"
"-0.796752","3.289624","0.034907"
"-0.328452","2.42809","0.11815899999999999"
"0.709015","2.2196740000000004","-1.033902"
"0.5639069999999999","1.931807","-1.4553200000000002"
"0.6388189999999999","0.406999","-0.530153"
"0.843269","-0.665239","-0.078456"
"0.35373000000000004","-1.0504120000000001","0.049422"
"0.11002","-1.858709","0.822484"
"0.378916","-1.943989","1.340355"
"0.39343","-1.9707279999999998","1.625843"
"-0.02585","-2.026208","1.712331"
"0.26498","-0.9945129999999999","0.564773"
"0.377679","0.081263","-0.34315"
"-0.573766","1.278502","-1.464113"
"-0.683013","1.950227","-2.105495"
"0.434759","-2.088377","-0.396253"
"0.851558","-1.6504020000000001","3.014525"
"0.539247","0.037610000000000005","4.223139"
"-0.176447","1.899574","2.172222"
"-0.182387","0.47837700000000005","0.546786"
"-0.9315969999999999","-0.539146","-1.611813"
"0.394492","1.623241","0.24255300000000002"
"-0.010467","1.0612700000000002","-0.278959"
"0.196528","0.9003049999999999","-0.13714"
"0.358299","2.093812","-0.696497"
"0.009158","0.346561","-1.907511"
"-1.046794","-0.516423","-0.276039"
"-0.575207","-0.768914","-0.742146"
"0.7681100000000001","-0.258336","-1.750589"
"0.785979","-0.87566","-0.716595"
"0.598596","-0.9618690000000001","-0.383508"
"-0.009872","-0.581725","-1.205419"
"-0.33207","-0.432108","-0.39164299999999996"
"-0.44333199999999995","-0.51954","-0.234487"
"-0.224873","1.173219","0.151144"
"-0.923117","2.250038","0.557773"
"-0.931097","2.178993","0.687854"
"-0.144763","2.533148","-0.294931"
"1.060463","2.862103","-2.272744"
"1.0501040000000001","2.212821","-2.279286"
"0.588391","0.078474","-0.103379"
"0.6078060000000001","-0.733504","-0.030664999999999998"
"0.42431899999999995","-1.010448","0.251314"
"0.764534","-1.3135290000000002","1.1055620000000002"
"0.040727","-1.638845","1.623381"
"-0.28736999999999996","-1.7773599999999998","1.8168990000000003"
"-0.050725","-1.892088","1.501488"
"0.46243900000000004","-1.426782","0.6905180000000001"
"0.434908","-1.096254","0.387789"
"0.067959","0.160236","-1.211662"
"0.226464","1.279643","-2.53856"
"-0.0027","0.108294","-1.360905"
"0.46106899999999995","-0.114337","1.705961"
"-0.072962","2.690907","0.703121"
"0.601851","0.118601","-1.395879"
"-0.8842909999999999","-0.015897","-0.408152"
"0.641203","1.8227240000000002","0.42873999999999995"
"0.685619","1.8191959999999998","0.319803"
"-0.13826300000000002","2.924048","-0.7267"
"0.168837","1.561417","-0.5157579999999999"
"-0.40213499999999996","0.467235","-1.6968189999999999"
"-1.348048","-0.29686599999999996","-1.487056"
"-0.405005","-0.89881","-0.32131"
"0.26558000000000004","-0.8460059999999999","-0.40342"
"0.6946359999999999","-0.478758","-1.144674"
"0.593464","-0.68282","-1.017957"
"0.10080399999999999","-0.818702","-1.125794"
"0.265782","-0.724873","-0.43008100000000005"
"0.313956","-0.38615700000000003","-0.553108"
"-0.054479999999999994","-0.247925","-0.462837"
"-0.165769","0.631391","-0.172333"
"-0.756087","2.3061279999999997","0.047588"
"-1.197375","3.518507","0.337648"
"-1.328977","3.173633","-0.018036"
"0.161351","2.209139","-0.460143"
"1.303461","2.2582709999999997","-0.539238"
"0.518104","1.241414","-0.808133"
"0.789277","-0.6175229999999999","0.5294449999999999"
"0.480943","-1.279075","0.712631"
"0.17491199999999998","-2.484651","1.475366"
"0.144273","-2.0588189999999997","2.087584"
"0.31353400000000003","-1.7814150000000002","1.9915479999999999"
"-0.10090199999999999","-1.864898","0.775794"
"0.19834100000000002","-1.1584020000000002","0.145072"
"0.298761","-0.705875","-0.188729"
"-0.626383","1.609583","-1.58728"
"-0.558512","1.029468","-1.484734"
"0.004554","-0.903806","-0.438303"
"-0.05126699999999999","-0.71549","2.328215"
"-0.24369699999999997","2.58094","-1.380564"
"2.088746","1.171821","1.4515149999999999"
"-0.270142","-0.009731","-1.071399"
"0.319242","1.199937","1.341016"
"-0.064662","1.6718849999999998","0.329968"
"0.155138","3.038627","-0.586773"
"0.277359","1.007929","-0.956609"
"-0.19328299999999998","0.365693","-1.563999"
"-1.460861","-1.0339180000000001","-0.977663"
"-0.231526","-1.003249","0.183677"
"0.260709","-0.800259","0.303288"
"0.690262","-0.230033","-1.447983"
"-0.009731","-0.714604","-1.221192"
"-0.046094","-0.726779","-1.203601"
"-0.052382000000000005","-0.7662220000000001","-0.728097"
"0.228809","-0.22672399999999998","-0.41559799999999997"
"0.012435","-0.24059499999999998","-0.8680479999999999"
"0.016673","0.587428","-0.18513800000000002"
"-0.9378549999999999","3.520304","0.788763"
"-1.165546","4.06864","0.559096"
"-0.5771069999999999","2.266408","-0.681384"
"0.251166","2.1504220000000003","-0.581388"
"0.635846","1.584271","-1.0813059999999999"
"0.8451700000000001","0.726492","-0.089834"
"0.28084899999999996","-1.447152","0.517379"
"0.309757","-1.790931","0.7189180000000001"
"0.073533","-2.167802","1.32663"
"0.43443100000000007","-2.287086","1.796878"
"0.063523","-1.759348","1.701598"
"0.14398699999999998","-1.409538","0.818526"
"0.234556","-0.7166020000000001","0.030072"
