"userAcceleration.x","userAcceleration.y","userAcceleration.z"
"-0.09062","0.348864","0.239127"
"-0.16793","0.22828099999999998","0.48794799999999994"
"-0.258366","0.043826","0.35833400000000004"
"-0.233121","-0.035718","0.309585"
"-0.00486","-0.139372","0.377778"
"0.148885","-0.319519","0.439483"
"0.168974","-0.428942","0.48086"
"0.19530799999999998","-0.6251180000000001","0.400917"
"0.038395","-0.669782","0.245614"
"0.028007","-0.685063","0.260816"
"-0.040949","-0.674609","0.264335"
"-0.023431","-0.537949","0.12278299999999999"
"-0.004312","-0.494435","0.024221"
"0.151354","-0.129173","-0.41361899999999996"
"0.25412199999999996","0.136998","-0.721771"
"0.2542","1.778615","-1.06859"
"-0.13517200000000001","0.46596000000000004","-1.246169"
"0.22218200000000002","-0.9220440000000001","-0.72823"
"0.056213","-0.916723","0.5239229999999999"
"-0.19885999999999998","1.335346","1.50334"
"-0.203737","1.889458","0.5096069999999999"
"0.07120399999999999","0.592647","-0.195994"
"-0.443375","-0.8346379999999999","0.46429799999999993"
"-0.48623999999999995","-0.368636","-0.38698"
"0.499626","0.562531","0.528536"
"0.621356","0.5863109999999999","1.337599"
"0.448637","0.23009000000000002","0.287441"
"-0.079299","0.162381","-0.137791"
"-0.187091","0.095422","0.046383999999999995"
"-0.132425","-0.06648899999999999","-0.133827"
"0.002427","-0.137873","-0.028881999999999998"
"0.048958","-0.273377","0.113728"
"0.07286799999999999","-0.454663","0.053746"
"0.098695","-0.456604","0.034031"
"0.214864","-0.314324","0.140413"
"0.198737","-0.19485999999999998","-0.06829500000000001"
"0.228415","-0.054039","-0.185125"
"0.317679","0.040313","-0.330242"
"0.393202","0.29273699999999997","-0.38876700000000003"
"0.357443","0.34441700000000003","-0.35091500000000003"
"0.29070300000000004","0.401808","-0.37401"
"0.36284099999999997","0.336758","-0.41438400000000003"
"0.224347","0.39081","-0.371302"
"0.180106","0.368424","-0.428091"
"0.363302","0.37494","-0.11608199999999999"
"0.358256","0.388646","0.01192"
"0.050319","0.514463","0.198456"
"-0.375246","0.570932","-0.14160699999999998"
"-0.42255699999999996","0.447329","0.33070700000000003"
"-0.298084","0.511602","0.5494479999999999"
"-0.326937","0.43413199999999996","0.080286"
"-0.053016999999999995","0.45293599999999995","-0.15061"
"-0.050696","0.311002","-0.088028"
"0.131287","0.166775","0.157338"
"0.100445","0.105018","0.252744"
"0.048691000000000005","-0.0074659999999999995","0.417092"
"-0.018496000000000002","-0.199277","0.549064"
"0.026691000000000003","-0.35194200000000003","0.557649"
"0.031399","-0.620372","0.443596"
"0.0554","-0.604171","0.419786"
"0.10055399999999999","-0.636788","0.394994"
"0.050716000000000004","-0.667556","0.294204"
"0.045596","-0.670412","0.272475"
"0.051134","-0.662396","0.213648"
"0.080914","-0.46605699999999994","-0.006439"
"0.114766","-0.24274099999999998","-0.251214"
"0.204008","0.43691599999999997","-0.666676"
"0.150843","1.540352","-0.8869020000000001"
"-0.130494","0.8703420000000001","-1.605954"
"0.21433400000000002","-0.021211","-1.3705100000000001"
"0.052397000000000006","-0.170067","-0.223004"
"-0.014332","0.793033","0.569538"
"-0.10510599999999999","1.294979","1.400585"
"-0.075817","-0.187803","0.592897"
"0.1311","-0.860358","0.894601"
"-0.337277","-0.233291","-0.18007599999999999"
"0.45063800000000004","0.7428600000000001","0.154809"
"0.328565","0.476739","0.935688"
"-0.070668","0.119554","0.39227"
"-0.013678000000000001","0.11328900000000001","0.120326"
"0.207813","0.106026","0.14279"
"0.150549","-0.098388","0.047672000000000006"
"-0.021815","-0.347698","-0.01623"
"-0.002519","-0.357948","0.03373"
"0.11234000000000001","-0.308263","0.01526"
"0.208159","-0.337999","0.077673"
"0.21653200000000003","-0.272663","0.118927"
"0.22840100000000002","-0.17936","0.05016"
"0.20989699999999997","-0.028388","-0.18887"
"0.271579","0.097196","-0.43589399999999995"
"0.339821","0.172749","-0.41806000000000004"
"0.321142","0.367518","-0.21830100000000002"
"0.37819899999999995","0.44010699999999997","-0.41315799999999997"
"0.46043599999999996","0.323375","-0.318394"
"0.408803","0.465228","-0.192492"
"0.286991","0.483195","-0.30391399999999996"
"0.253633","0.49178599999999995","-0.153533"
"0.233948","0.320828","0.18040599999999998"
"-0.169783","0.28733400000000003","-0.045485000000000005"
"-0.26197800000000004","0.293069","-0.218923"
"-0.333527","0.442176","0.205258"
"-0.19966099999999998","0.521207","0.5141680000000001"
"-0.120958","0.448617","0.328529"
"-0.074008","0.37141","-0.084007"
"-0.006162","0.301526","-0.050658999999999996"
"0.14113399999999998","0.27388","0.17482899999999998"
"0.180018","0.109822","0.275714"
"0.09477000000000001","-0.13065","0.451959"
"0.082574","-0.180274","0.5156930000000001"
"0.026195","-0.436154","0.5191720000000001"
"0.029289999999999997","-0.5684600000000001","0.496508"
"0.046539","-0.670859","0.460309"
"0.109403","-0.614595","0.33620500000000003"
"0.067594","-0.624069","0.294732"
"0.025255","-0.628368","0.246993"
"0.022469","-0.642433","0.149876"
"0.049009","-0.659521","-0.026272000000000004"
"0.030835","-0.310699","-0.27866799999999997"
"0.175045","0.629758","-0.584852"
"-0.006479","1.967094","-0.688657"
"-0.430845","0.76047","-1.538713"
"0.363203","-0.709886","-1.11389"
"-0.013138999999999998","0.573805","0.18200999999999998"
"0.040704000000000004","1.278298","0.8240049999999999"
"0.010149","1.204488","1.2614"
"0.24023200000000003","-0.821407","0.8390549999999999"
"-0.173846","-0.6042609999999999","0.41838500000000006"
"-0.154093","0.079237","-0.041462"
"0.526089","0.983791","0.227253"
"0.221408","0.377771","0.871174"
"-0.07061","0.127433","0.392162"
"-0.02634","0.19892200000000002","0.23608400000000002"
"0.014718","0.10991","0.16757"
"0.016049","-0.102851","-0.035952"
"0.010726000000000001","-0.309877","-0.032986"
"0.08941900000000001","-0.292648","-0.032914"
"0.165299","-0.364698","-0.05248200000000001"
"0.25354499999999996","-0.336275","-0.011795"
"0.28026799999999996","-0.328229","0.013632"
"0.28913","-0.136829","0.095052"
"0.310546","-0.014297","-0.036823"
"0.278547","-0.028238","-0.230802"
"0.206823","0.004555","-0.483888"
"0.280383","0.24404800000000001","-0.22021500000000002"
"0.32676","0.29812","-0.147705"
"0.321246","0.325","-0.396073"
"0.22273400000000002","0.322447","-0.343902"
"0.167881","0.45775699999999997","-0.36738699999999996"
"0.333596","0.453679","-0.12972999999999998"
"0.357406","0.40051","0.035844"
"0.10895999999999999","0.42561099999999996","0.15875899999999998"
"-0.24745","0.44830299999999995","-0.16822"
"-0.21596700000000002","0.625555","0.3111"
"-0.174876","0.57514","0.6097199999999999"
"-0.075197","0.534121","0.313975"
"-0.012223999999999999","0.564349","0.205823"
"0.12336","0.440695","-0.12870399999999999"
"0.13709100000000002","0.332622","0.186776"
"0.016015","0.156891","0.232391"
"-0.09412100000000001","-0.099423","0.45022"
"-0.049366","-0.29701500000000003","0.550656"
"0.028260000000000004","-0.499511","0.5031979999999999"
"0.149567","-0.662461","0.331074"
"0.19746","-0.673773","0.401473"
"0.114476","-0.498658","0.284018"
"0.069631","-0.495975","0.25664899999999996"
"-0.025368","-0.5784199999999999","0.28776799999999997"
"-0.063567","-0.5834729999999999","0.278256"
"-0.033281","-0.5700810000000001","0.214977"
"-0.016756","-0.49882","0.007"
"0.087878","0.047201","-0.544469"
"0.222311","0.5431239999999999","-0.7669630000000001"
"0.158908","1.261626","-1.100284"
"0.35771","0.5676800000000001","-1.247625"
"0.689233","-0.176153","-1.186827"
"0.662038","-0.35930300000000004","-0.41748100000000005"
"0.044851","0.65552","0.5587340000000001"
"-0.5330560000000001","1.7313310000000002","2.044265"
"0.167195","-0.11664000000000001","0.739971"
"-0.542555","-0.975165","0.289056"
"-0.7795340000000001","-0.684182","-0.221583"
"0.032296","0.499805","-0.057953"
"0.31437","0.694601","0.455143"
"-0.018806","0.041145","0.939968"
"-0.124297","0.032091","0.17616300000000001"
"0.139414","0.14213399999999998","0.32106"
"0.198916","0.005417","0.169808"
"0.083838","-0.20541199999999998","-0.069194"
"-0.027160000000000004","-0.24139699999999997","0.017745"
"0.013250999999999999","-0.259017","-0.008045"
"0.092404","-0.310606","0.06804099999999999"
"0.146065","-0.26142600000000005","0.065577"
"0.18529600000000002","-0.16841099999999998","-0.14569000000000001"
"0.343645","0.086031","-0.294631"
"0.39361599999999997","0.152771","-0.389959"
"0.466782","0.271712","-0.41039799999999993"
"0.305388","0.310934","-0.48840600000000006"
"0.384351","0.333832","-0.276986"
"0.47993500000000006","0.321154","-0.119539"
"0.280436","0.387275","-0.305151"
"-0.12088399999999999","0.413696","-0.41653500000000004"
"-0.061624","0.324298","-0.12626600000000002"
"0.011382999999999999","0.24220500000000003","-0.038451"
"0.017369","0.20705900000000002","0.091501"
"-0.244191","0.37414000000000003","-0.018767"
"-0.43026899999999996","0.43790100000000004","0.21662399999999998"
"-0.458859","0.508887","0.546986"
"-0.326652","0.435746","0.138568"
"-0.127615","0.35692199999999996","-0.074187"
"-0.032121","0.385205","-0.059133000000000005"
"0.12225899999999999","0.354043","0.082298"
"0.21970900000000002","0.303796","0.13905"
"0.11281300000000001","0.048935","0.35941599999999996"
"0.046506","-0.21163","0.5481010000000001"
"0.11910599999999999","-0.423913","0.550702"
"0.17703","-0.521948","0.416749"
"0.10955899999999999","-0.747028","0.295166"
"0.041569999999999996","-0.66474","0.256767"
"-0.015280000000000002","-0.612441","0.23295300000000002"
"-0.013706","-0.658254","0.198817"
"-0.0070290000000000005","-0.707693","0.145484"
"0.010462","-0.692897","0.065073"
"0.197007","-0.628181","-0.16663699999999998"
"0.200818","-0.193196","-0.329865"
"0.140584","1.9909970000000001","-0.587897"
"0.140012","1.9915740000000002","-0.585476"
"0.029766","0.382347","-1.717854"
"-0.06199400000000001","0.077355","-0.112952"
"-0.260694","1.3036780000000001","0.7680130000000001"
"-0.27458499999999997","0.963192","2.2540970000000002"
"0.128175","-1.230613","0.46402200000000005"
"0.014752000000000001","-0.8684219999999999","0.599228"
"-0.126999","0.157859","-0.141556"
"0.40868499999999996","1.337648","0.065858"
"0.129365","0.272171","0.8279340000000001"
"-0.079637","-0.019639","0.160723"
"0.137749","0.10339200000000001","0.177317"
"0.043956999999999996","-0.113633","0.14265899999999998"
"-0.151478","-0.43822799999999995","-0.025303"
"-0.059447","-0.325818","0.027127"
"0.128779","-0.197164","-0.027926"
"0.233183","-0.198033","-0.0544"
"0.278632","-0.22041599999999997","0.016449000000000002"
"0.360759","-0.128308","0.124963"
"0.388653","0.044364999999999995","0.140182"
"0.296705","0.033822000000000005","-0.15681199999999998"
"0.125164","0.044858999999999996","-0.395047"
"0.259311","0.173234","-0.39963899999999997"
"0.293133","0.25884","-0.342398"
"0.23757899999999998","0.39024899999999996","-0.35034899999999997"
"0.23866199999999999","0.306583","-0.162846"
"0.14211","0.40219099999999997","-0.23512800000000003"
"0.059686","0.5409189999999999","-0.320768"
"0.243049","0.446572","-0.163941"
"0.2571","0.454692","0.053101"
"-0.11436199999999999","0.32613200000000003","0.019533000000000002"
"-0.120376","0.182144","-0.04371"
"-0.17870999999999998","0.22475599999999998","0.167232"
"-0.14488099999999998","0.384992","0.46257200000000004"
"-0.148099","0.286591","0.132012"
"-0.004547","0.34002899999999997","-0.060769000000000004"
"0.035368000000000004","0.316183","-0.075144"
"0.125797","0.309683","0.15676199999999998"
"0.161077","0.137825","0.29748600000000003"
"0.12851700000000002","-0.101515","0.423303"
"0.069603","-0.273806","0.571941"
"0.06917000000000001","-0.306076","0.582091"
"0.05928099999999999","-0.601929","0.37961500000000004"
"0.01526","-0.601795","0.32512199999999997"
"0.050032","-0.5483399999999999","0.25931"
"0.094216","-0.530247","0.183082"
"0.06422","-0.583932","0.157872"
"-0.041742","-0.5741649999999999","0.088258"
"-0.010707","-0.61911","-0.001637"
"0.070349","-0.48386899999999994","-0.201311"
"0.249043","0.822182","-0.49787700000000007"
"0.148331","1.962516","-0.43401000000000006"
"-0.306031","1.7598650000000002","-1.4278620000000002"
"0.183756","-0.363852","-1.613367"
"0.290997","-0.920782","-0.22881100000000001"
"0.072788","0.239957","0.53179"
"-0.38271900000000003","1.73153","2.0062759999999997"
"0.22646599999999997","0.19958299999999998","0.7177140000000001"
"0.298679","-0.826299","-0.157108"
"-0.35972","-0.56592","0.099863"
"-0.437233","-0.13234100000000001","-0.557941"
"0.296104","0.686624","0.247202"
"0.19348800000000002","0.392687","0.593096"
"0.004837","-0.086118","0.637763"
"-0.244126","-0.22708499999999998","0.136551"
"-0.014405000000000001","-0.166106","0.212627"
"0.23152899999999998","-0.087238","-0.036831"
"0.185307","-0.137776","0.01548"
"0.200766","-0.125389","0.043401"
"0.201673","-0.11785","0.032962"
"0.22778800000000002","-0.082445","-0.132902"
"0.22511","-0.112285","-0.191679"
"0.237948","-0.031455000000000004","-0.335331"
"0.327495","0.10248199999999999","-0.375881"
"0.364659","0.152659","-0.39663899999999996"
"0.28621599999999997","0.13177","-0.396742"
"0.298745","0.278099","-0.43240500000000004"
"0.403024","0.203743","-0.281409"
"0.31811100000000003","0.394385","-0.092279"
"0.025689","0.537944","-0.26843"
"0.21242800000000003","0.506354","0.068201"
"0.21859099999999998","0.715096","0.317653"
"-0.428008","0.349081","-0.160822"
"-0.633749","0.107427","-0.084847"
"-0.376257","0.097772","0.255444"
"-0.183919","0.408023","0.399339"
"-0.144531","0.575194","0.146169"
"-0.192438","0.540161","0.01555"
"-0.068069","0.387886","0.229479"
"0.130779","0.379852","0.256654"
"0.193152","0.158076","0.204882"
"0.193683","-0.119743","0.397129"
"0.170159","-0.333624","0.47263"
"0.094375","-0.46588199999999996","0.46471999999999997"
"0.038818","-0.5929800000000001","0.42441899999999994"
"0.048491","-0.6398020000000001","0.371651"
"0.075656","-0.654234","0.36732800000000004"
"0.057491999999999994","-0.571976","0.29268"
"0.045702","-0.59329","0.24156999999999998"
"0.068709","-0.647678","0.15466300000000002"
"0.116433","-0.7263689999999999","-0.016741"
"0.12591","-0.626729","-0.192167"
"0.13978800000000002","-0.049135000000000005","-0.328732"
"0.040449","1.696073","-0.47038800000000003"
"-0.363707","2.207895","-1.062497"
"-0.26726500000000003","-0.302259","-1.8044240000000002"
"0.09651599999999999","-1.081758","-0.45965900000000004"
"-0.0907","-0.188943","0.1365"
"0.01974","1.423193","1.6038290000000002"
"0.11925799999999999","0.11797300000000001","0.661664"
"0.211254","-0.353745","0.369243"
"0.223935","-0.656197","0.610863"
"-0.040447000000000004","0.2037","-0.146376"
"0.15153599999999998","0.821522","-0.06501599999999999"
"0.39925900000000003","0.614116","0.482104"
"-0.091751","-0.071993","0.168485"
"-0.152843","-0.060368","0.066564"
"-0.063993","-0.097135","0.29118299999999997"
"0.05481900000000001","-0.308147","0.047389999999999995"
"0.125693","-0.306637","-0.046639"
"0.21883699999999998","-0.24984499999999998","0.038751999999999995"
"0.270289","-0.18165","0.181775"
"0.290046","-0.21202100000000002","0.15723399999999998"
"0.152507","-0.143738","0.156895"
"0.096461","-0.118381","-0.160442"
"0.188523","0.078695","-0.372555"
"0.24341100000000002","0.201951","-0.531423"
"0.35636999999999996","0.20438499999999998","-0.272687"
"0.305076","0.340513","-0.363951"
"0.362475","0.417472","-0.28497100000000003"
"0.36348","0.26441","-0.08453"
"0.032871","0.361431","-0.206235"
"-0.045473","0.399765","-0.318795"
"0.011019","0.441763","-0.15476600000000001"
"0.218484","0.306896","-0.001454"
"-0.008935","0.269843","0.044592"
"-0.200729","0.148333","-0.09205"
"-0.275479","0.105512","0.224396"
"-0.251237","0.4301","0.509049"
"-0.12287999999999999","0.589256","0.29880300000000004"
"-0.039741000000000005","0.534181","-0.0665"
"-0.08123999999999999","0.43090600000000007","0.15879000000000001"
"0.044756","0.275348","0.47493599999999997"
"0.22085900000000003","0.129494","0.092178"
"0.15574000000000002","-0.0009599999999999999","0.280842"
"0.12535","-0.075257","0.410009"
"0.129918","-0.324771","0.48735200000000006"
"0.097332","-0.48635900000000004","0.527504"
"0.093313","-0.5541229999999999","0.521622"
"0.036648","-0.6104510000000001","0.30929"
"0.040286","-0.5486840000000001","0.28115500000000004"
"0.045961","-0.5679890000000001","0.264835"
"0.052645000000000004","-0.600694","0.24743800000000002"
"0.031672000000000006","-0.598636","0.103816"
"0.02574","-0.6297050000000001","-0.031305"
"0.001462","-0.345242","-0.43813599999999997"
"0.31185799999999997","1.6557680000000001","-0.550705"
"-0.32348499999999997","1.790197","-0.8841450000000001"
"-0.27119699999999997","0.8621979999999999","-1.27136"
"0.463347","-0.875923","-0.661188"
"0.198227","-0.5827680000000001","0.131758"
"0.10964000000000002","-0.08893","0.35491300000000003"
"-0.020373","1.177542","1.480029"
"0.09675399999999999","-0.049637","0.351929"
"0.323469","-0.565487","0.876819"
"-0.122424","-0.45415900000000003","0.512594"
"0.068716","0.5560510000000001","-0.05561"
"0.225771","0.8721770000000001","0.009502"
"0.246759","0.237339","0.7240989999999999"
"-0.02543","-0.022178","0.22173800000000002"
"-0.030406","-0.128682","0.389783"
"-0.048563999999999996","-0.11881199999999999","0.297566"
"0.116217","-0.175831","-0.044787"
"0.123547","-0.175372","-0.08204"
"0.187201","-0.209166","0.04612"
"0.19942100000000001","-0.16526300000000002","0.066758"
"0.199536","-0.07613099999999999","-0.018848"
"0.183223","-0.082945","-0.211635"
"0.21325100000000002","-0.029820999999999997","-0.203179"
"0.289563","0.045881","-0.284369"
"0.242565","0.11431","-0.38402800000000004"
"0.113569","0.200512","-0.35584899999999997"
"0.20927600000000002","0.339424","-0.444337"
"0.392892","0.270416","-0.120524"
"0.250397","0.33060700000000004","-0.158944"
"-0.030388","0.40219","-0.405775"
"-0.028455","0.29478200000000004","-0.340991"
"0.07398099999999999","0.27558","-0.148896"
"0.14119","0.209984","0.12158499999999998"
"0.089648","0.43826400000000004","0.130775"
"-0.087418","0.44304899999999997","0.091284"
"-0.29963","0.535619","0.5247609999999999"
"-0.346171","0.525339","0.492511"
"-0.29244000000000003","0.42198199999999997","0.015957"
"-0.261252","0.34818000000000005","-0.027592000000000002"
"-0.118476","0.35733899999999996","0.162635"
"0.265257","0.217288","0.103861"
"0.23781","0.073354","0.15623299999999998"
"0.174656","-0.044512","0.31789"
"0.063071","-0.27583","0.681318"
"0.128701","-0.5665560000000001","0.698932"
"0.07670700000000001","-0.7507119999999999","0.368503"
"0.025762","-0.600442","0.25392800000000004"
"0.064361","-0.5116890000000001","0.220654"
"0.041549","-0.574531","0.23755900000000002"
"-0.0065049999999999995","-0.608851","0.211162"
"0.004293","-0.6384380000000001","0.063858"
"0.069509","-0.5765710000000001","-0.10269"
"0.055286","-0.137381","-0.28667800000000004"
"0.11459000000000001","0.264127","-0.571449"
"-0.28994699999999995","2.552464","-1.043696"
"-0.318689","0.523137","-1.602019"
"-0.102833","-0.206027","-1.277234"
"0.012313","0.25549099999999997","0.355661"
"0.200469","1.177139","1.596986"
"0.285166","0.448664","1.473083"
"0.176289","-0.793452","0.43209899999999996"
"0.0024460000000000003","-0.216471","0.341086"
"0.014393000000000001","-0.22014099999999998","0.324418"
"0.204251","0.666122","0.079863"
"0.118546","0.24566100000000002","0.249288"
"0.157138","-0.069974","0.30794099999999996"
"0.151228","-0.029818","0.21215900000000001"
"0.13087100000000002","-0.07433","0.19309400000000002"
"-0.041977","-0.25812199999999996","0.108997"
"-0.045663999999999996","-0.23309899999999997","0.036427"
"0.10629200000000001","-0.189901","-0.048461000000000004"
"0.299408","-0.127202","0.024454"
"0.34486500000000003","-0.074297","0.078428"
"0.37094","0.030726","0.155014"
"0.25622399999999995","-0.062825","0.0671"
"0.081709","-0.07095","-0.12086500000000001"
"0.11201099999999999","0.024003","-0.404132"
"0.259786","0.10544400000000001","-0.448437"
"0.28424699999999997","0.187636","-0.252751"
"0.124803","0.283321","-0.37562199999999996"
"0.26210300000000003","0.330892","-0.332602"
"0.385637","0.257684","-0.185917"
"0.16109300000000001","0.349132","-0.135439"
"-0.002059","0.533516","-0.27536"
"0.279516","0.462794","-0.19403399999999998"
"0.249658","0.459665","0.145175"
"-0.1002","0.300131","0.044569"
"-0.21081599999999998","0.31046","0.11598599999999999"
"-0.170659","0.501099","0.585217"
"-0.19503800000000002","0.46477299999999994","0.35034499999999996"
"-0.19055899999999998","0.379825","0.08578999999999999"
"0.035539","0.546276","0.23679699999999998"
"0.227686","0.599662","0.26597"
"0.137695","0.027585000000000002","0.178268"
"0.120171","-0.08267100000000001","0.46761"
"0.139843","-0.099227","0.565886"
"0.12008800000000001","-0.379447","0.567192"
"0.10965","-0.574741","0.49599399999999993"
"0.087656","-0.630803","0.433421"
"0.05985700000000001","-0.5889949999999999","0.36801999999999996"
"0.07596","-0.543261","0.335198"
"0.048271","-0.5761310000000001","0.322826"
"0.047285","-0.620433","0.246144"
"0.043699","-0.6592","0.095968"
"0.045116","-0.6679930000000001","-0.021313"
"0.11926199999999999","-0.096249","-0.362626"
"0.30794699999999997","1.6411830000000003","-0.656292"
"0.137794","2.6442229999999998","-0.710645"
"0.0068909999999999996","0.054839","-1.542368"
"0.375703","-0.5163270000000001","-0.7277640000000001"
"0.23858800000000002","-0.45710500000000004","-0.09892999999999999"
"-0.010179","0.6080899999999999","0.6786760000000001"
"-0.13183699999999998","0.8545780000000001","1.140484"
"0.316641","-0.19976","0.435429"
"0.206275","-0.826191","0.269208"
"-0.092423","-0.640469","0.440198"
"0.042387","0.7986","-0.048487999999999996"
"0.2614","0.8783979999999999","-0.013569999999999999"
"0.359921","0.741221","0.033957"
"0.138156","-0.10981600000000001","0.275627"
"0.06088","0.036142","0.028560000000000002"
"0.104426","0.104519","0.040224"
"0.130424","-0.12706199999999998","0.031063999999999998"
"0.127404","-0.243773","0.056473"
"0.144763","-0.241873","0.103627"
"0.188664","-0.17366099999999998","0.103198"
"0.26255500000000004","-0.158635","0.055961000000000004"
"0.33352","-0.07175","0.042472"
"0.283615","-0.016619","0.090666"
"0.196012","-0.001713","0.052167"
"0.0032170000000000002","-0.039223","-0.114649"
"0.11042","0.052737","-0.40458"
"0.368118","0.262495","-0.583559"
"0.224212","0.346595","-0.337542"
"0.15851700000000002","0.30027600000000004","-0.402902"
"0.335194","0.27750199999999997","-0.09034500000000001"
"0.151117","0.5339659999999999","-0.17995999999999998"
"0.047663","0.641402","-0.21141300000000002"
"0.187833","0.5770310000000001","0.039606"
"-0.20438599999999998","0.398173","-0.088464"
"-0.31148000000000003","0.143946","-0.22989600000000002"
"-0.195351","-0.096208","0.160992"
"0.023769","0.296094","0.495255"
"-0.018341","0.39561199999999996","0.475113"
"-0.210781","0.461506","0.044627999999999994"
"-0.096234","0.44711999999999996","0.190594"
"0.032596","0.357064","0.271881"
"0.083134","0.054839","0.125499"
"0.199809","-0.080545","0.206368"
"0.259275","-0.15011","0.360505"
"0.256996","-0.36549299999999996","0.43245"
"0.203647","-0.5655859999999999","0.354159"
"0.20649","-0.64482","0.298632"
"0.19212","-0.645351","0.286275"
"0.169681","-0.5316569999999999","0.21322199999999997"
"0.129901","-0.522234","0.102969"
"0.155367","-0.597094","-0.0329"
"0.149059","-0.6333449999999999","-0.181592"
"0.117459","-0.036544","-0.532848"
"0.083763","0.47493199999999997","-0.632664"
"-0.24","1.813975","-0.81747"
"-0.24925","0.42761899999999997","-0.9466950000000001"
"0.07625499999999999","-0.417336","-0.7948"
"-0.070785","-0.286723","0.010215"
"-0.307952","1.112874","0.903965"
"-0.220462","1.429092","0.976303"
"0.395473","-0.291732","-0.06087000000000001"
"0.614961","-0.549396","0.573174"
"0.5463210000000001","-0.393181","0.560296"
"0.588562","0.136424","0.452795"
"0.363491","0.716312","0.26514699999999997"
"0.155142","0.284697","0.21327600000000002"
"0.09030099999999999","0.173655","0.036448"
"0.143928","0.029266000000000004","0.037814"
"0.097571","-0.284019","0.029154000000000003"
"-0.015606","-0.34992199999999996","-0.025911"
"0.113001","-0.23260999999999998","-0.072114"
"0.380985","-0.14894200000000002","0.062914"
"0.325679","-0.240542","0.458693"
"0.124721","-0.228998","0.471016"
"-0.193777","-0.09175499999999999","0.031285"
"-0.179257","-0.02625","-0.47228400000000004"
"-0.12411900000000001","0.056998","-0.5737300000000001"
"-0.016111","0.098378","-0.5947939999999999"
"-0.06852000000000001","0.25649299999999997","-0.27581300000000003"
"-0.12406600000000001","0.282763","-0.150408"
"-0.009073000000000001","0.262533","-0.068218"
"0.048501","0.36846100000000004","-0.39986"
"0.031073000000000003","0.46554399999999996","-0.5342779999999999"
"-0.063808","0.657273","-0.374019"
"0.07308300000000001","0.428217","-0.14851"
"0.11798900000000001","0.39114699999999997","-0.026833"
"0.12341500000000001","0.405398","0.440625"
"0.05878","0.429968","0.45153699999999997"
"0.136714","0.45957600000000004","0.217401"
"0.29484499999999997","0.43965","0.458032"
"0.20260699999999998","0.39460300000000004","0.102248"
"0.05339","0.056359000000000006","-0.01145"
"0.040512","-0.093343","0.136378"
"0.155836","-0.21012199999999998","0.28785"
"0.244146","-0.433525","0.47658900000000004"
"0.390142","-0.528304","0.41076599999999996"
"0.44894700000000004","-0.451837","0.307409"
"0.365","-0.376698","0.326092"
"0.302572","-0.467976","0.35972600000000005"
"0.192614","-0.5363720000000001","0.286224"
"0.088505","-0.580371","0.10523199999999999"
"-0.024402","-0.6500020000000001","-0.029546"
"-0.147654","-0.534722","-0.35477800000000004"
"-0.177743","0.658854","-0.86561"
"-0.106093","1.615577","-0.815804"
"-0.36697399999999997","1.969138","-0.731295"
"-0.19533299999999998","-0.024997","-1.0812190000000002"
"-0.096863","-0.7822600000000001","-0.7756029999999999"
"-0.282473","-0.088911","0.218756"
"0.142069","0.710172","1.125492"
"0.171422","0.228437","0.9844870000000001"
"0.157216","-0.42294499999999996","0.332658"
"0.186273","-0.336476","0.375719"
"0.084823","-0.122296","0.423105"
"0.049382999999999996","0.23278200000000002","0.139425"
"0.329612","0.549373","0.151337"
"0.27431700000000003","-0.045860000000000005","0.343991"
"0.097902","-0.08727599999999999","-0.002667"
"0.13811800000000002","-0.08920399999999999","0.005059"
"0.175379","-0.170273","0.076015"
"0.13904","-0.34318899999999997","0.039007"
"0.144984","-0.353061","0.015987"
"0.215369","-0.305647","0.026282"
"0.188896","-0.138657","0.170602"
"0.16681500000000002","-0.152539","0.076288"
"0.048631","-0.05877","-0.064966"
"0.20877600000000002","0.193998","-0.644207"
"0.320509","0.263941","-0.6381680000000001"
"0.262284","0.244083","-0.353928"
"0.11682999999999999","0.399463","-0.394121"
"0.347646","0.38519000000000003","-0.205051"
"0.417425","0.393305","-0.11726500000000001"
"-0.158694","0.475033","-0.33686900000000003"
"-0.10303499999999999","0.434287","-0.43162399999999995"
"0.16567300000000001","0.5520079999999999","-0.240794"
"0.211196","0.246993","-0.055582000000000006"
"0.026524000000000002","0.120369","0.110001"
"-0.13193","0.139585","0.373107"
"-0.190933","0.48773500000000003","0.5309699999999999"
"-0.119753","0.530321","0.307616"
"-0.013343","0.52145","0.019549"
"0.017240000000000002","0.458109","0.32411"
"0.233431","0.487451","0.070154"
"0.26","0.161813","-0.039924"
"0.141997","-0.063835","0.306112"
"0.115104","-0.305936","0.634788"
"0.16016","-0.443201","0.688466"
"0.273169","-0.66168","0.52354"
"0.266278","-0.6503329999999999","0.3994"
"0.228872","-0.510732","0.38068"
"0.171491","-0.539784","0.32522399999999996"
"0.08974299999999999","-0.548916","0.225327"
"0.006319","-0.483732","0.051316999999999995"
"-0.019888999999999997","-0.361654","-0.208477"
"0.070602","0.14738900000000002","-0.856022"
"0.05575700000000001","0.580674","-0.972965"
"0.031397","1.058127","-0.793204"
"-0.409839","0.499317","-0.8235110000000001"
"-0.196986","-0.10015","-0.552693"
"-0.124751","-0.225073","-0.409487"
"-0.07908","-0.14829900000000001","0.271426"
"0.0343","0.291119","0.49266800000000005"
"0.171601","0.310436","0.148555"
"0.5328729999999999","-0.163977","0.503989"
"0.535829","-0.347512","0.58849"
"0.430486","0.154351","0.376296"
"0.320139","0.627311","0.138844"
"0.344518","0.443171","0.173933"
"0.296082","0.165534","0.149647"
"0.25446399999999997","0.054832000000000006","0.08906"
"0.172292","-0.166642","0.055268"
"0.054439","-0.328083","0.038441"
"0.014394","-0.23739899999999997","0.034548"
"0.111358","-0.07030800000000001","0.019065000000000002"
"0.303904","-0.071508","-0.040338"
"0.33925","-0.209905","0.16624"
"0.23675300000000002","-0.226654","0.24696500000000002"
"-0.023452","-0.176965","0.125866"
"-0.197256","-0.013037","-0.18723900000000002"
"-0.033559","0.14696900000000002","-0.569453"
"0.004913","0.11059400000000001","-0.22534400000000002"
"0.002318","0.23373899999999997","-0.10443800000000002"
"0.227665","0.386517","-0.102235"
"0.47408900000000004","0.501927","-0.18646300000000002"
"0.280265","0.738488","-0.115558"
"0.085961","0.9299629999999999","-0.114059"
"0.04172","0.585629","-0.008664"
"-0.200257","0.21230300000000002","-0.26477"
"-0.37749","-0.270098","-0.353463"
"-0.432914","-0.09464700000000001","0.163383"
"-0.075338","0.352067","0.49792200000000003"
"-0.0015539999999999998","0.541076","0.382902"
"-0.039188","0.47655","0.24814"
"0.051254999999999995","0.309397","0.284713"
"0.11119200000000001","0.090501","0.29382600000000003"
"0.088012","-0.160854","0.327721"
"0.347464","-0.397978","0.336134"
"0.30841999999999997","-0.389402","0.187358"
"0.26229","-0.474538","0.318417"
"0.304278","-0.49851999999999996","0.331032"
"0.315663","-0.5006659999999999","0.331095"
"0.368992","-0.522559","0.302624"
"0.249923","-0.530153","0.12875699999999998"
"0.173496","-0.6104189999999999","-0.094944"
"0.074175","-0.564391","-0.33543"
"-0.21825","0.015203999999999999","-0.815832"
"-0.216536","1.3802530000000002","-0.825486"
"-0.39194","1.251957","-1.179599"
"-0.025315","-0.13630599999999998","-0.962517"
"-0.43051999999999996","-0.446672","-0.12919"
"-0.427753","0.143414","0.42494"
"-0.12679100000000001","1.0000850000000001","0.9577180000000001"
"-0.013541","0.441038","0.534266"
"0.28331300000000004","-0.48289099999999996","0.062429"
"0.138489","-0.451424","0.45306899999999994"
"0.166155","-0.12003","0.563813"
"0.46528500000000006","0.690501","0.227109"
"0.513785","0.47441000000000005","0.272954"
"0.313371","-0.057497","0.363417"
"0.068026","-0.142557","0.068259"
"-0.036838","-0.179497","0.039651"
"-0.022351","-0.25784","0.169441"
"0.095795","-0.269522","0.135357"
"0.25335799999999997","-0.122517","0.140348"
"0.31101999999999996","-0.015447","0.11996"
"0.285516","-0.041149","0.06829600000000001"
"0.10756099999999999","-0.115949","-0.094431"
"0.104333","-0.071728","-0.179352"
"0.09502100000000001","0.047894","-0.338353"
"0.12049000000000001","0.090619","-0.46015500000000004"
"0.11142200000000001","0.145225","-0.275473"
"-0.021905","0.149112","-0.193776"
"0.163495","0.251384","-0.388415"
"0.276074","0.215565","-0.202124"
"0.32497","0.21631399999999998","-0.070281"
"0.0336","0.323511","-0.28767600000000004"
"-0.109806","0.286956","-0.383479"
"-0.071297","-0.049065","-0.472127"
"0.073031","-0.182704","-0.174514"
"0.026174","-0.11999100000000001","-0.091665"
"0.12587","0.460995","0.371837"
"0.296369","1.1853","0.681241"
"-0.24684699999999998","1.064174","0.6996"
"-0.375973","0.474905","0.095098"
"-0.171537","0.443351","0.093015"
"0.238436","0.396864","0.248854"
"0.26456","0.155309","0.042446"
"0.22490900000000003","0.07761","-0.060119000000000006"
"0.180861","0.061225","0.168265"
"-0.005832","-0.25814499999999996","0.6069859999999999"
"-0.006821","-0.44891899999999996","0.708172"
"0.175807","-0.751242","0.72593"
"0.20783800000000002","-0.708739","0.391906"
"0.141505","-0.659402","0.261239"
"0.018661","-0.728186","0.210556"
"-0.077122","-0.76142","0.179699"
"-0.070744","-0.727322","0.080449"
"0.034612000000000004","-0.470641","-0.085851"
"0.14651199999999998","0.143958","-0.44390799999999997"
"0.183647","1.9047049999999999","-0.8953840000000001"
"-0.129206","2.482263","-1.0777709999999998"
"0.133102","-0.38495999999999997","-1.313951"
"0.330845","-0.885832","-0.876339"
"0.12529","-0.169999","0.5317"
"0.06554700000000001","1.897232","1.108588"
"0.185395","2.466227","1.245288"
"0.568051","-0.592164","0.736252"
"-0.106777","-0.805817","0.8827659999999999"
"-0.592627","-0.393825","-0.427133"
"-0.026594","0.665982","0.048806"
"0.592538","0.8734799999999999","0.459975"
"0.281837","0.234404","0.563022"
"-0.005116","-0.10909100000000001","0.402977"
"-0.284877","-0.427943","0.095528"
"-0.14838800000000002","-0.32140799999999997","0.149769"
"0.049788","-0.161297","0.006318"
"0.3179","-0.170496","-0.093915"
"0.306213","-0.160253","0.11771400000000001"
"0.253558","-0.18571500000000002","0.046273"
"0.207497","-0.154401","-0.054607"
"0.17698","-0.022188","-0.244625"
"0.179951","-0.01775","-0.269735"
"0.194215","0.089938","-0.384984"
"0.088388","0.179296","-0.400296"
"0.08267200000000001","0.410418","-0.399723"
"0.293348","0.3366","-0.224938"
"0.34357600000000005","0.394201","-0.004143"
"0.049448","0.454772","-0.20660799999999999"
"-0.21897199999999997","0.406432","-0.387038"
"0.052427999999999995","0.426605","-0.23567600000000002"
"0.199222","0.242696","-0.045139"
"-0.003746","0.22168600000000002","0.210813"
"-0.158799","0.143836","0.19895"
"-0.422803","0.257429","0.47418699999999997"
"-0.326536","0.36136","0.532883"
"-0.215759","0.334851","0.309823"
"-0.132528","0.402541","0.106272"
"0.096944","0.458804","0.24888600000000002"
"0.23728600000000002","0.45652600000000004","0.179367"
"0.348876","0.145758","0.027145"
"0.249011","-0.237852","0.45123"
"0.23936","-0.338606","0.555086"
"0.239407","-0.47929099999999997","0.5212180000000001"
"0.036294","-0.543748","0.256825"
"-0.040106","-0.43282","0.216047"
"-0.005362","-0.46821599999999997","0.184944"
"0.035137","-0.573311","0.193384"
"0.026452","-0.5927819999999999","0.19459200000000001"
"0.063114","-0.681445","0.076163"
"0.044306","-0.531331","-0.090047"
"0.015361000000000001","-0.018122","-0.459113"
"0.304656","1.2466409999999999","-0.8633360000000001"
"0.008772","1.779311","-0.9917819999999999"
"0.253714","-0.074587","-0.8885780000000001"
"0.292258","-0.771964","-0.30351999999999996"
"0.087786","0.039927","0.387225"
"-0.035173","1.295776","1.3853360000000001"
"0.22637","0.550091","0.521458"
"0.209117","-0.728089","0.267857"
"-0.281656","-0.646033","1.009767"
"-0.590533","-0.5271560000000001","0.696508"
"0.164081","0.6650050000000001","0.178576"
"0.59229","0.524146","0.365452"
"0.362218","0.017800999999999997","0.427899"
"0.10415","-0.074773","-0.00405"
"0.048812","-0.192381","0.224588"
"0.076004","-0.26563000000000003","0.198689"
"-0.003743","-0.182765","-0.039169999999999996"
"0.15071199999999998","-0.158959","-0.045308999999999995"
"0.188723","-0.1089","-0.014711000000000002"
"0.201557","-0.090644","0.047895"
"0.137511","-0.063555","0.002388"
"0.132231","-0.064583","-0.093297"
"0.14038299999999998","-0.027094999999999998","-0.16933399999999998"
"0.22052600000000003","0.18548299999999998","-0.446478"
"0.15826099999999999","0.249962","-0.356419"
"0.099696","0.316666","-0.34944400000000003"
"0.378873","0.245777","-0.087424"
"0.357564","0.286668","0.009101999999999999"
"0.13431099999999999","0.486367","-0.15776800000000002"
"-0.0465","0.514845","-0.282458"
"0.197978","0.33560300000000004","-0.04069"
"-0.061841","0.37945999999999996","0.07418200000000001"
"-0.174956","0.22445700000000002","0.09277200000000001"
"-0.338491","0.12896300000000002","0.27793"
"-0.161276","0.369785","0.460909"
"-0.21775799999999998","0.362087","0.270471"
"-0.206664","0.42289","0.125154"
"0.106228","0.5010220000000001","0.22750599999999999"
"0.34005","0.443112","0.046695"
"0.29425300000000004","0.25509499999999996","0.058809"
"0.145012","-0.24470999999999998","0.39314099999999996"
"0.17508800000000002","-0.325441","0.546697"
"0.24753699999999998","-0.45306","0.588041"
"0.147606","-0.615009","0.390692"
"0.03142","-0.602587","0.37835599999999997"
"0.032558","-0.534213","0.32198699999999997"
"0.077316","-0.554218","0.276981"
"0.023324","-0.581595","0.22259299999999999"
"-0.038748000000000005","-0.658659","0.09314299999999999"
"-0.032298","-0.5841609999999999","-0.014486"
"0.029852999999999998","-0.13902799999999998","-0.186426"
"0.250735","0.9268129999999999","-0.627214"
"-0.06792100000000001","2.314279","-0.763936"
"-0.24374400000000002","0.602596","-1.4613"
"0.232041","-0.741893","-0.7964479999999999"
"0.191591","-0.869714","-0.023481000000000002"
"0.17914000000000002","0.078605","0.7313390000000001"
"0.163912","0.635443","1.197135"
"0.067268","0.907755","0.506795"
"0.278206","-0.734908","0.426971"
"-0.010048","-0.8489260000000001","0.779507"
"-0.529488","-0.473857","0.14052"
"0.375872","0.7704949999999999","0.384952"
"0.5699029999999999","0.70407","0.36278"
"0.512414","0.43661000000000005","0.5249229999999999"
"-0.010189","-0.139472","0.07197200000000001"
"-0.019987","-0.23196399999999998","0.140309"
"0.020666","-0.22948400000000002","0.229156"
"0.187533","-0.18398299999999998","0.10313"
"0.26403899999999997","-0.176983","-0.101691"
"0.269127","-0.127433","-0.118158"
"0.055867999999999994","-0.160478","-0.004337"
"-0.015702","-0.167047","-0.139476"
"-0.051104000000000004","-0.154064","-0.233355"
"0.23610799999999998","0.110973","-0.330751"
"0.263437","0.171073","-0.377761"
"0.158727","0.26590199999999997","-0.383353"
"0.157255","0.324602","-0.35204"
"0.336343","0.28784499999999996","-0.194821"
"0.169692","0.378827","-0.143787"
"0.033981","0.382648","-0.23194099999999998"
"-0.095488","0.40707899999999997","-0.275467"
"0.296953","0.266592","0.11101400000000002"
"0.195392","0.39973400000000003","0.222088"
"-0.23315300000000003","0.41148599999999996","0.08140700000000001"
"-0.44759499999999997","0.241274","0.45610600000000007"
"-0.170959","0.506246","0.48179700000000003"
"-0.111622","0.46833","0.45036499999999996"
"-0.019334999999999998","0.558159","0.013402"
"0.136103","0.497645","0.248106"
"0.36639299999999997","0.310929","0.155496"
"0.267102","0.031560000000000005","0.21298000000000003"
"0.156246","-0.222779","0.48958900000000005"
"0.07271","-0.42343800000000004","0.629575"
"0.119057","-0.511614","0.5877899999999999"
"0.173006","-0.567558","0.448934"
"0.17033399999999999","-0.589727","0.37456799999999996"
"0.106617","-0.555967","0.31068"
"0.064944","-0.592707","0.275404"
"-0.006519","-0.676933","0.228642"
"-0.106491","-0.682585","0.158578"
"-0.077944","-0.550021","0.066079"
"-0.079066","-0.173652","-0.068013"
"0.096843","0.586828","-0.537452"
"-0.015553","2.2226529999999998","-1.049748"
"-0.318286","0.968137","-1.172727"
"0.058708","-0.5334270000000001","-0.9368790000000001"
"0.07385599999999999","-0.619531","-0.183694"
"0.174181","0.223582","0.34739699999999996"
"0.246748","1.1919819999999999","1.157219"
"0.365883","0.017195","0.557767"
"0.334982","-0.531589","0.533033"
"0.257461","-0.8004979999999999","0.9155120000000001"
"-0.575361","0.13073099999999999","-0.455071"
"-0.292694","0.615274","-0.071795"
"0.019622999999999998","0.7106180000000001","0.36791399999999996"
"0.44715200000000005","0.129776","0.541834"
"0.308062","0.016112","0.33975"
"0.138271","0.012852","0.189156"
"0.05248","-0.21118","0.24829"
"0.143716","-0.21692399999999998","-0.008827"
"0.187177","-0.235141","-0.095199"
"0.162393","-0.274301","-0.038607"
"0.162131","-0.24453899999999998","-0.035317"
"0.12389100000000002","-0.13753800000000002","-0.06525800000000001"
"0.13126600000000002","-0.004065","0.032194"
"0.154247","0.06221","-0.039487"
"0.164747","0.161602","-0.23160999999999998"
"0.13464","0.295962","-0.44942200000000004"
"0.063651","0.338647","-0.469659"
"0.315922","0.23758200000000002","-0.16275499999999998"
"0.41161899999999996","0.319869","0.042052"
"0.327138","0.357693","0.026160000000000003"
"0.041037","0.387235","-0.330271"
"0.166694","0.357239","-0.188092"
"0.322467","0.338932","0.107857"
"0.036857","0.10331199999999999","0.17055399999999998"
"-0.49921899999999997","-0.025406","0.063527"
"-0.39528","0.126338","0.120196"
"-0.190629","0.251322","0.139692"
"0.079501","0.495699","0.329586"
"0.02754","0.416293","0.291551"
"-0.035254","0.31800300000000004","0.195328"
"0.072655","0.146333","0.48455"
"0.146809","0.084605","0.390421"
"0.09281","-0.07944","0.265662"
"0.022446","-0.096765","0.22965300000000002"
"-0.043067","-0.259676","0.33700399999999997"
"-0.050592000000000005","-0.339331","0.34225700000000003"
"0.028926","-0.414571","0.232019"
"0.10184","-0.46354300000000004","0.15621600000000002"
"0.10894100000000001","-0.44076800000000005","0.10737200000000001"
"0.030486000000000003","-0.483911","0.15648299999999998"
"0.030324","-0.518401","0.23803000000000002"
"0.026323000000000003","-0.585549","0.21796100000000002"
"-0.005","-0.48006499999999996","0.112107"
"-0.05112","-0.36942600000000003","-0.063524"
"-0.100597","-0.055254","-0.437"
"0.148289","0.908875","-0.940591"
"0.068999","1.321612","-0.794301"
"0.054809000000000004","0.17611400000000002","-0.709047"
"-0.108553","-0.44702299999999995","-0.40924699999999997"
"0.21522800000000003","0.047642000000000004","0.136157"
"-0.022922","1.273631","1.54721"
"-0.025756","0.275449","0.538866"
"0.333271","-0.653291","-0.015028999999999999"
"-0.23621799999999998","-0.639843","0.379921"
"-0.444666","-0.31764899999999996","0.587953"
"-0.11833800000000001","0.499616","0.205577"
"0.428149","0.566742","0.334735"
"0.459229","0.119199","0.559325"
"0.086548","-0.342327","0.5199560000000001"
"-0.310153","-0.24795999999999999","0.32819899999999996"
"-0.022065","-0.0434","0.174387"
"0.23496399999999998","-0.030981","-0.084654"
"0.132877","-0.144034","-0.357127"
"0.101103","-0.208101","-0.165771"
"0.095177","-0.20119","-0.086749"
"0.189167","-0.038724","-0.065751"
"0.310935","0.153879","-0.18296800000000002"
"0.292118","0.144674","-0.24573000000000003"
"0.32961399999999996","0.243419","-0.416415"
"0.42458199999999996","0.296804","-0.164575"
"0.456024","0.274397","-0.094195"
"0.201227","0.42248","-0.276185"
"0.052298000000000004","0.307799","-0.508081"
"0.285238","0.246875","-0.227496"
"0.204324","0.209196","-0.134943"
"0.010835","0.18880999999999998","0.12707100000000002"
"-0.115573","0.336241","0.12954200000000002"
"-0.326298","0.421533","0.274003"
"-0.293469","0.45487700000000003","0.500329"
"-0.25762399999999996","0.295629","0.322968"
"-0.29517899999999997","0.42729700000000004","0.215256"
"-0.28139200000000003","0.290252","0.303774"
"0.050774","0.374463","0.273967"
"0.22991399999999998","0.355102","0.12863"
"0.244338","0.09847","0.161494"
"0.11695599999999999","-0.015156999999999999","0.38318800000000003"
"0.143264","-0.43242200000000003","0.6136689999999999"
"0.19365","-0.575308","0.490217"
"0.182104","-0.601011","0.435411"
"0.114996","-0.631541","0.41088900000000006"
"0.079046","-0.653076","0.36220399999999997"
"0.027654","-0.6677770000000001","0.308564"
"-0.029836","-0.747725","0.233488"
"-0.106092","-0.625907","0.064358"
"-0.041077999999999996","-0.19106199999999998","-0.132467"
"0.078166","0.742222","-0.63415"
"-0.097393","2.208062","-1.01032"
"-0.424579","0.890114","-1.143626"
"-0.16178399999999998","-0.731668","-0.639166"
"-0.048902","-0.556792","-0.061505"
"0.34480900000000003","0.433325","0.382722"
"0.44623500000000005","1.092622","0.9141469999999999"
"0.240515","-0.35962","0.628089"
"0.21523","-0.591787","0.684666"
"-0.23739699999999997","-0.331125","0.202574"
"0.025025","0.778831","-0.018022"
"0.253011","0.753722","0.224346"
"0.369365","0.051704999999999994","0.568298"
"0.348093","0.028333999999999998","0.43988299999999997"
"0.21493400000000001","0.023912","0.282008"
"-0.231868","-0.11424400000000001","0.193267"
"-0.20755","-0.21731","0.23315500000000003"
"-0.121163","-0.24089000000000002","0.18321099999999998"
"0.154321","-0.268694","-0.034324"
"0.194254","-0.317973","0.009289"
"0.18446400000000002","-0.28633600000000003","0.013068000000000001"
"0.09904299999999999","-0.183279","-0.008806999999999999"
"0.12387000000000001","-0.095088","-0.11665199999999999"
"0.179597","-0.008917","-0.165991"
"0.267448","0.21281999999999998","-0.434979"
"0.090985","0.23826","-0.399235"
"0.169222","0.312004","-0.402133"
"0.30049000000000003","0.399863","-0.186272"
"0.11002100000000001","0.441271","-0.205421"
"-0.065207","0.399889","-0.31388699999999997"
"0.051062","0.474469","-0.191249"
"0.097987","0.310668","0.070824"
"-0.133731","0.374381","0.127925"
"-0.344136","0.323232","0.204787"
"-0.400955","0.44038299999999997","0.44429399999999997"
"-0.375664","0.465095","0.540497"
"-0.122813","0.4873","0.237006"
"-0.020633000000000002","0.529601","0.24305700000000002"
"0.070371","0.6190329999999999","0.271485"
"0.197466","0.18956900000000002","0.004785"
"0.039731999999999996","-0.041103","0.316235"
"0.093552","-0.26918200000000003","0.608259"
"0.182508","-0.47519799999999995","0.620531"
"0.218705","-0.617587","0.419512"
"0.200175","-0.584792","0.415162"
"0.159898","-0.563224","0.424205"
"0.122181","-0.6098979999999999","0.321178"
"0.15825999999999998","-0.678833","0.32777"
"0.099785","-0.692457","0.215761"
"0.05140599999999999","-0.728314","0.009567"
"0.06274","-0.5534640000000001","-0.086315"
"0.027989999999999998","-0.2529","-0.152593"
"0.049086000000000005","1.938536","-0.666323"
"-0.464348","1.619521","-1.282778"
"-0.39111399999999996","-0.264312","-0.9543149999999999"
"-0.139208","-1.072427","0.002509"
"-0.192467","0.0013599999999999999","0.25854099999999997"
"0.254226","0.978282","1.000516"
"0.285378","1.274354","0.950298"
"0.200694","-0.17214400000000002","0.457214"
"0.13165","-0.672945","0.9542719999999999"
"-0.376958","-0.326826","0.09753400000000001"
"0.075298","0.8758809999999999","-0.222806"
"0.586431","0.166944","0.603919"
"0.41393199999999997","-0.0033","0.5887899999999999"
"0.314708","-0.063466","0.261808"
"0.058057000000000004","-0.062258","0.31899099999999997"
"-0.097366","-0.2583","0.24525"
"-0.10943299999999999","-0.188453","0.16656300000000002"
"0.09765700000000001","-0.182765","-0.094217"
"0.230751","-0.234646","-0.041668000000000004"
"0.191444","-0.293187","0.06693099999999999"
"0.10404300000000001","-0.255898","-0.013665"
"0.07434299999999999","-0.096624","-0.065857"
"0.18921400000000002","0.015606","-0.23215700000000003"
"0.303321","0.136251","-0.469758"
"0.153496","0.13875099999999999","-0.32359099999999996"
"0.112158","0.32589","-0.390357"
"0.19514600000000001","0.336567","-0.345889"
"0.27155","0.39151199999999997","-0.012336"
"0.00759","0.5166149999999999","-0.177622"
"-0.10511400000000001","0.574966","-0.266436"
"0.08242999999999999","0.543882","-0.198178"
"0.062220000000000004","0.361819","-0.043063"
"-0.09152","0.19254100000000002","0.090111"
"-0.17519300000000002","0.21355700000000002","0.353587"
"-0.207885","0.5120020000000001","0.52171"
"-0.21713600000000002","0.5544899999999999","0.47945"
"-0.120893","0.521781","0.44006999999999996"
"-0.02988","0.5304909999999999","0.51013"
"0.068159","0.482254","0.352292"
"0.192252","-0.12340699999999999","0.081968"
"0.18522","-0.106295","0.121949"
"0.21497199999999997","-0.431306","0.66615"
"0.29846500000000004","-0.711491","0.560365"
"0.282923","-0.707888","0.525822"
"0.199435","-0.677157","0.50638"
"0.115373","-0.700442","0.45376099999999997"
"0.114724","-0.699585","0.45539700000000005"
"0.060369000000000006","-0.711063","0.31706999999999996"
"-0.117745","-0.781211","0.008006999999999998"
"-0.106446","-0.629911","-0.08429"
"0.060103","0.086645","-0.280098"
"0.18082","1.8764720000000001","-0.7215699999999999"
"-0.52512","2.200756","-1.069356"
"-0.406675","-0.09640900000000001","-1.356486"
"-0.072167","-1.16021","-0.197657"
"-0.033579000000000005","-0.587727","0.489034"
"0.000484","0.49434399999999995","0.984143"
"0.154704","1.062791","0.8323510000000001"
"0.10406800000000001","1.274159","0.303439"
"0.579028","-0.503178","1.0301360000000002"
"0.241312","-0.8317030000000001","0.797808"
"-0.165649","-0.21650300000000003","0.031981"
"0.266489","0.5596720000000001","0.592492"
"0.478022","0.374283","0.566844"
"0.381243","0.144789","0.33163000000000004"
"0.070022","-0.14186500000000002","0.251386"
"0.0007830000000000001","-0.166445","0.271251"
"-0.09693099999999999","-0.27729000000000004","0.174322"
"0.12151400000000001","-0.388828","-0.029064"
"0.23929299999999998","-0.38727","-0.05036"
"0.23133800000000002","-0.41190600000000005","0.060077"
"0.13636600000000001","-0.406981","0.088963"
"0.068924","-0.20456300000000002","0.10741500000000001"
"0.059928999999999996","-0.033198000000000005","-0.107492"
"0.090683","0.164269","-0.467559"
"0.012209000000000001","0.40291","-0.426108"
"0.092838","0.570441","-0.52037"
"0.409546","0.534805","-0.229935"
"0.469758","0.527826","-0.244493"
"0.304242","0.520608","-0.298975"
"-0.11413800000000002","0.51105","-0.253914"
"-0.10354300000000001","0.426325","-0.11173399999999999"
"-0.0047","0.11530599999999999","0.211011"
"-0.187443","0.189789","0.189023"
"-0.247191","0.339248","0.430989"
"-0.286627","0.477542","0.5078699999999999"
"-0.36237800000000003","0.59535","0.598655"
"-0.056924","0.603409","0.12191600000000001"
"0.025941000000000002","0.582665","0.258439"
"0.098689","0.542642","0.40880500000000003"
"0.351852","-0.041538","0.400063"
"0.355748","-0.12381099999999999","0.42014700000000005"
"0.286202","-0.187274","0.505249"
"0.023837999999999998","-0.685182","0.5514319999999999"
"0.030059","-0.695621","0.496771"
"0.075042","-0.637258","0.468081"
"0.152109","-0.41078000000000003","0.41859399999999997"
"0.153114","-0.449248","0.387409"
"0.114179","-0.516566","0.34024499999999996"
"-0.096636","-0.656303","0.262023"
"-0.097341","-0.645406","0.16978800000000002"
"-0.002915","-0.10098","-0.157653"
"-0.053786","0.988079","-0.605051"
"-0.10431800000000001","1.6922810000000001","-0.889599"
"-0.554541","0.6340600000000001","-1.1558620000000002"
"-0.302885","-0.186394","-0.681883"
"-0.017258000000000003","-0.804033","-0.106903"
"0.202329","0.184442","0.68895"
"0.357441","1.116184","0.666133"
"0.301233","1.323342","0.6384350000000001"
"0.685874","-0.355268","1.21895"
"-0.0438","-0.540039","0.6482359999999999"
"-0.184856","-0.184568","0.186134"
"0.44966999999999996","0.595032","0.47994"
"0.528029","0.264237","0.436964"
"0.300546","-0.001064","0.294607"
"-0.059351999999999995","-0.141597","0.297317"
"-0.340848","-0.304227","0.312656"
"-0.188349","-0.401552","0.12472000000000001"
"0.150909","-0.317152","0.022153"
"0.343143","-0.178122","0.166749"
"0.296883","-0.111472","0.332719"
"0.1503","-0.230483","0.0035759999999999998"
"0.09650399999999999","-0.098649","-0.091994"
"0.073409","0.00172","-0.057000999999999996"
"0.338377","0.305064","-0.534046"
"0.412254","0.32647800000000005","-0.34115"
"0.293277","0.357543","-0.360781"
"0.22179000000000001","0.414411","-0.16594"
"0.353733","0.28922800000000004","-0.056539"
"0.205396","0.377316","-0.120581"
"-0.027192","0.408112","-0.185657"
"0.088502","0.454071","-0.148063"
"0.128616","0.355012","-0.13963299999999998"
"0.236725","0.14288900000000002","-0.076293"
"0.150729","0.013758000000000001","0.201954"
"0.2311","0.053998000000000004","0.350013"
"0.27920100000000003","0.235977","0.469821"
"-0.10651600000000001","0.540624","0.46117600000000003"
"-0.153356","0.5845","0.106003"
"-0.176254","0.561291","0.007201000000000001"
"0.253031","0.292993","0.441434"
"0.30343400000000004","0.096991","0.48726099999999994"
"0.37519600000000003","-0.022463","0.484199"
"0.42124799999999996","-0.379101","0.405886"
"0.195752","-0.478529","0.29942399999999997"
"-0.0592","-0.521035","0.298981"
"0.126128","-0.453268","0.48608599999999996"
"0.265289","-0.394886","0.515375"
"0.13888599999999998","-0.37796799999999997","0.406543"
"-0.00417","-0.39913200000000004","0.41438500000000006"
"-0.047643","-0.401138","0.388852"
"-0.329079","-0.365111","0.28436999999999996"
"-0.216608","-0.173482","0.074705"
"-0.19648","-0.077474","-0.096126"
"0.093172","0.974295","-0.9047430000000001"
"0.29078000000000004","1.403327","-1.161837"
"0.19635899999999998","0.31256300000000004","-0.747699"
"0.315758","-0.283054","-0.6827270000000001"
"0.180154","-0.186763","-0.03075"
"0.363531","0.672026","0.8231"
"0.435854","1.1248850000000001","0.832203"
"0.404978","-0.292785","0.771319"
"0.113686","-0.802452","0.964619"
"-0.547078","-0.598943","0.429559"
"0.061477","0.594719","0.454017"
"0.382395","0.592522","0.586507"
"0.551796","0.314841","0.42578599999999994"
"0.384081","0.10429400000000001","0.228962"
"0.29986599999999997","0.057918","0.088795"
"0.13379000000000002","-0.198425","0.290489"
"0.06522","-0.286089","0.244723"
"0.085595","-0.186197","0.169996"
"0.24445300000000003","-0.16591199999999998","-0.122699"
"0.230452","-0.27708699999999997","-0.10852"
"0.21425999999999998","-0.39358000000000004","0.003935"
"0.17831","-0.23549899999999999","0.08521799999999999"
"0.092093","0.048986","0.15276900000000002"
"0.08886000000000001","0.11818900000000002","0.020980000000000002"
"0.23655","0.272098","-0.742212"
"0.284383","0.33006399999999997","-0.362075"
"0.225737","0.413483","-0.28215999999999997"
"0.30853200000000003","0.37104899999999996","-0.19711700000000001"
"0.262986","0.377819","-0.150846"
"0.150567","0.444825","-0.131329"
"-0.05930800000000001","0.321819","-0.469559"
"0.156523","0.17415","-0.098271"
"0.189466","0.187277","-0.051549"
"0.157538","0.32039","0.128374"
"0.166652","0.35744000000000004","0.41963100000000003"
"0.072059","0.368029","0.600472"
"-0.374768","0.452558","0.554307"
"-0.33122399999999996","0.7900560000000001","-0.072122"
"-0.189685","0.815278","-0.023662"
"0.013722","0.732949","0.17913900000000002"
"0.41731","-0.138753","0.6920970000000001"
"0.549138","-0.201646","0.6433220000000001"
"0.576408","-0.218261","0.621114"
"0.011599","-0.712681","0.272179"
"0.10835399999999999","-0.579667","0.380188"
"0.152556","-0.45502600000000004","0.433512"
"0.17952100000000001","-0.5722619999999999","0.504246"
"0.11549100000000001","-0.584911","0.46117700000000006"
"-0.009028","-0.594229","0.34615799999999997"
"-0.086033","-0.578418","0.24916799999999997"
"-0.097093","-0.536894","0.11019100000000001"
"-0.021077000000000002","-0.400588","-0.145427"
"0.024955","0.143753","-0.5880850000000001"
"0.182893","1.405189","-1.071405"
"-0.178587","0.756971","-1.0452700000000001"
"0.08467000000000001","-0.328046","-0.761688"
"0.10557000000000001","-0.655044","-0.024503999999999998"
"-0.070654","-0.034055","0.553902"
"0.251413","0.618043","0.5573319999999999"
"0.231167","1.316376","0.8339979999999999"
"0.465333","-0.116828","0.787719"
"0.270276","-0.387696","0.855453"
"-0.193874","-0.284618","0.19761199999999998"
"0.163597","0.593058","0.0066760000000000005"
"0.5152939999999999","0.407119","0.507782"
"0.329856","0.048135000000000004","0.346125"
"0.219773","-0.060724","0.12723099999999998"
"0.150555","-0.10401700000000001","0.126947"
"0.05703300000000001","-0.307064","0.157609"
"-0.071447","-0.494813","0.023901"
"0.06060499999999999","-0.384373","0.113827"
"0.240562","-0.264687","0.021355000000000002"
"0.312859","-0.17687","0.029960000000000004"
"0.271129","-0.046724","0.081731"
"0.21103200000000003","0.057294000000000005","0.033760000000000005"
"0.114472","0.098688","-0.035664999999999995"
"0.142601","0.195048","-0.31763800000000003"
"0.262052","0.27474","-0.548329"
"0.15523","0.28676799999999997","-0.281157"
"-0.040202999999999996","0.377658","-0.357323"
"0.165607","0.275731","-0.228654"
"0.30191100000000004","0.215164","-0.074071"
"0.019096000000000002","0.34680300000000003","-0.333625"
"-0.052080999999999995","0.296232","-0.324272"
"-0.050294","0.263866","-0.2585"
"0.224343","0.183167","-0.021975"
"0.25644","0.30659000000000003","0.169734"
"0.308222","0.43255299999999997","0.306712"
"-0.07585700000000001","0.725226","0.569759"
"-0.360982","0.6421939999999999","0.525456"
"-0.274647","0.612599","0.09073200000000001"
"-0.016525","0.534066","0.196858"
"0.174478","0.380203","0.629808"
"0.26869499999999996","0.155024","0.48837200000000003"
"0.17077","0.025779000000000003","0.129465"
"0.13175699999999999","-0.075861","0.16173800000000002"
"0.135606","-0.26198499999999997","0.501313"
"0.179696","-0.369967","0.569222"
"0.269663","-0.7270949999999999","0.6748"
"0.260013","-0.821016","0.516336"
"0.064942","-0.63878","0.400502"
"0.102725","-0.598117","0.42305600000000004"
"0.098228","-0.634405","0.405278"
"0.04242","-0.5539850000000001","0.235641"
"-0.042886","-0.495992","0.020186000000000003"
"-0.07424800000000001","-0.270485","-0.16051300000000002"
"0.09278099999999999","0.6780390000000001","-0.617959"
"0.272416","2.448212","-0.9470959999999999"
"-0.10899500000000001","1.079966","-0.988835"
"0.161433","-0.279015","-1.180534"
"0.133019","-0.620351","-0.295406"
"0.077775","-0.10723900000000001","0.40143"
"0.397065","0.540574","0.8664280000000001"
"0.309894","0.928955","1.2422360000000001"
"0.103324","-0.236154","0.730744"
"-0.06664500000000001","-0.5803560000000001","0.56421"
"-0.213417","-0.357309","0.20081500000000002"
"0.132234","0.617426","0.17482799999999998"
"0.31722100000000003","0.51253","0.25214000000000003"
"0.365072","-0.159091","0.614678"
"0.326374","-0.262309","0.46800699999999995"
"0.22669299999999998","-0.066966","0.037226999999999996"
"0.220275","-0.074292","0.004215999999999999"
"0.035912","-0.387908","0.044566"
"-0.011025","-0.348489","-0.083663"
"0.101674","-0.324924","-0.19786099999999998"
"0.30063","-0.180063","-0.254739"
"0.43254499999999996","-0.056435","-0.042238"
"0.326129","-0.024961","0.196133"
"0.11362699999999999","0.056324","0.10625"
"-0.064794","0.16125799999999998","-0.028619"
"-0.05901699999999999","0.167287","-0.058364"
"0.272713","0.46661899999999995","-0.486951"
"0.25000900000000004","0.321841","-0.149177"
"0.254492","0.199224","-0.151803"
"0.355929","0.32859499999999997","-0.116425"
"0.339391","0.575856","-0.16281500000000002"
"0.28277399999999997","0.594062","-0.102423"
"0.1164","0.513428","0.11633900000000001"
"-0.186808","0.22592600000000002","0.125143"
"-0.324882","0.066208","0.049857"
"0.026483999999999997","0.49261099999999997","0.41006499999999996"
"-0.015004","0.6895359999999999","0.38524400000000003"
"-0.10608900000000002","0.6098560000000001","0.136317"
"-0.140705","0.5023920000000001","0.164736"
"0.001381","0.326077","0.400506"
"0.26553000000000004","0.10911199999999999","0.258073"
"0.313319","-0.009347","0.150892"
"0.229421","-0.18421600000000002","0.408116"
"0.23154","-0.272569","0.5325810000000001"
"0.165455","-0.519745","0.60113"
"0.255256","-0.612549","0.546121"
"0.183793","-0.629308","0.483067"
"0.101878","-0.579921","0.46614399999999995"
"0.114178","-0.6059","0.42108"
"0.094213","-0.603718","0.297002"
"0.0843","-0.625233","0.11768900000000002"
"0.07184700000000001","-0.597759","-0.10978099999999999"
"0.019303999999999998","-0.255254","-0.356516"
"0.156111","0.992224","-0.856793"
"-0.044797000000000003","2.548013","-0.920959"
"-0.479117","0.7165189999999999","-1.226961"
"-0.099273","-0.594362","-0.688109"
"-0.023753","-0.359852","0.088171"
"0.314895","0.656881","0.504827"
"0.30004699999999995","1.141578","1.398847"
"0.34841500000000003","-0.287034","0.703137"
"-0.069336","-0.8739520000000001","0.508213"
"-0.12431500000000001","-0.490754","0.485621"
"0.168419","0.5336390000000001","-0.10738900000000001"
"0.399954","0.904214","0.071649"
"0.405079","0.061855999999999994","0.604542"
"0.398789","-0.146731","0.480857"
"0.281401","0.10217999999999999","0.013483000000000002"
"0.156164","-0.026954000000000002","0.22254899999999997"
"0.022386","-0.251355","0.17247"
"-0.02392","-0.323173","0.037099"
"-0.015080000000000001","-0.343523","0.023255"
"0.163971","-0.3645","-0.004108"
"0.254869","-0.303021","0.07230299999999999"
"0.311909","-0.225951","0.12776700000000002"
"0.103647","0.092602","0.089651"
"0.051809","0.11413399999999999","0.063536"
"0.086406","0.15398499999999998","-0.113543"
"0.374816","0.32772399999999996","-0.354126"
"0.415721","0.366299","-0.104276"
"0.177717","0.17529","-0.19806400000000002"
"0.37653000000000003","0.325283","-0.044186"
"0.244439","0.42148199999999997","-0.21008400000000002"
"0.125586","0.398445","-0.365199"
"0.117403","0.408632","-0.188496"
"0.164549","0.352342","0.015728"
"-0.009962","0.26905100000000004","0.154853"
"-0.137972","0.166468","0.123446"
"-0.257152","0.41933000000000004","0.48967"
"-0.21455500000000002","0.497647","0.518305"
"-0.145809","0.600191","0.253744"
"-0.106977","0.7502989999999999","0.31547800000000004"
"0.044313","0.44408100000000006","0.39715900000000004"
"0.229496","0.338919","0.20355399999999998"
"0.344542","0.162675","0.066959"
"0.22084099999999998","-0.033181999999999996","0.25513800000000003"
"0.126565","-0.297556","0.574815"
"0.204174","-0.58135","0.663481"
"0.240794","-0.767131","0.606726"
"0.173376","-0.7597659999999999","0.5075810000000001"
"0.07195399999999999","-0.662139","0.387333"
"0.12044400000000001","-0.611043","0.373291"
"0.07437","-0.68898","0.268165"
"0.027852","-0.696715","0.186827"
"0.000976","-0.72254","0.106449"
"-0.049492","-0.322376","-0.10831099999999999"
"-0.020599","0.083355","-0.324223"
"0.002364","2.660059","-1.066675"
"-0.5432359999999999","0.927","-1.29629"
"-0.106466","-0.8421069999999999","-0.697095"
"0.137211","-0.922459","-0.038413"
"0.17463399999999998","-0.006904","0.43361700000000003"
"0.371388","0.352124","0.876541"
"0.296073","1.358552","0.9293520000000001"
"0.205677","0.37637600000000004","0.368596"
"0.24654600000000002","-0.374162","0.796786"
"-0.380142","-0.430858","0.252289"
"-0.145493","0.296191","-0.21214899999999998"
"0.19666","0.40993599999999997","0.159146"
"0.400927","-0.013109","0.601796"
"0.341579","-0.014284999999999999","0.331252"
"0.37808400000000003","0.06955","0.18957000000000002"
"0.258129","-0.167901","0.389373"
"-0.009417","-0.303082","0.13911400000000002"
"-0.073017","-0.260265","0.05541"
"0.13517200000000001","-0.26669299999999996","-0.112518"
"0.189466","-0.266343","0.084954"
"0.137353","-0.219427","0.101612"
"-0.022690000000000002","-0.090046","0.056661"
"0.059569000000000004","0.093464","-0.229425"
"0.356218","0.23766700000000002","-0.881426"
"0.452171","0.208855","-0.32797800000000005"
"0.281982","0.289555","-0.190448"
"0.215783","0.304635","-0.266678"
"0.342541","0.265708","-0.086655"
"0.162242","0.40306","-0.134241"
"-0.08834","0.371299","-0.294128"
"-0.096937","0.355507","-0.20828400000000002"
"0.134731","0.227198","0.009146"
"0.031851","0.399484","0.135191"
"-0.003587","0.39996","0.201572"
"-0.09465499999999999","0.6140479999999999","0.48385200000000006"
"-0.296773","0.73285","0.46239300000000005"
"-0.227098","0.667538","0.219723"
"0.012537999999999999","0.648111","0.2806"
"0.18578699999999998","0.5066189999999999","0.5496300000000001"
"0.320855","0.274621","0.389047"
"0.264944","-0.14358800000000002","0.130405"
"0.206973","-0.20205599999999999","0.296496"
"0.167714","-0.271067","0.462383"
"0.163528","-0.639213","0.614594"
"0.16159","-0.6301359999999999","0.631634"
"0.183364","-0.799157","0.5837"
"0.16186","-0.604466","0.46501099999999995"
"0.152989","-0.603125","0.438004"
"0.080855","-0.64944","0.358338"
"0.015533000000000002","-0.665475","0.22445500000000002"
"-0.022639","-0.600507","0.08254299999999999"
"-0.06481100000000001","-0.351147","-0.123776"
"0.0060409999999999995","0.48841999999999997","-0.501855"
"0.05564500000000001","2.428238","-0.813901"
"-0.622672","1.710655","-1.144191"
"-0.10347","-0.943858","-0.708721"
"0.11601700000000001","-0.880257","-0.290655"
"0.181894","-0.012717000000000001","0.38804"
"0.404547","0.367135","0.98398"
"0.217196","0.709937","0.712159"
"0.348352","-0.140245","0.38293499999999997"
"0.40128","-0.289421","0.639321"
"0.184948","-0.0044280000000000005","0.31779"
"0.301215","0.745549","0.33836700000000003"
"0.28869","0.5168189999999999","0.41772299999999996"
"0.293995","0.044837","0.2701"
"0.259258","-0.085716","0.20807399999999998"
"0.171862","-0.113195","0.299735"
"0.08843999999999999","-0.124402","0.15417999999999998"
"0.10463399999999999","-0.192577","-0.035262"
"0.25243499999999996","-0.331187","0.006725"
"0.34318000000000004","-0.348433","-0.027464999999999996"
"0.290589","-0.336345","0.050136"
"0.21380700000000002","-0.22359899999999996","0.122972"
"0.164572","-0.12202400000000001","0.104895"
"0.153384","0.049311","-0.025137"
"0.119229","0.230425","-0.8327379999999999"
"0.084288","0.297979","-0.547478"
"0.069064","0.318627","-0.094398"
"-0.157068","0.428116","-0.159726"
"-0.125567","0.428221","-0.288772"
"0.029653","0.430724","-0.37376"
"0.299611","0.667794","-0.427438"
"0.401514","0.460495","-0.223942"
"0.44928","0.24399400000000002","-0.022208000000000002"
"0.13977799999999999","0.146272","0.219344"
"0.18055","0.341519","0.516794"
"0.218754","0.49747700000000006","0.633293"
"0.367654","0.538619","0.377203"
"0.447975","0.629556","0.28377800000000003"
"0.058265","0.389704","0.191856"
"-0.144457","0.024268","0.060037"
"0.14516300000000001","-0.095536","0.30115"
"0.38418","-0.16297999999999999","0.398109"
"0.443934","-0.301243","0.38019899999999995"
"0.397377","-0.380944","0.341483"
"0.404731","-0.442776","0.357037"
"0.44880600000000004","-0.38967399999999996","0.347125"
"0.41029","-0.528558","0.349116"
"0.333303","-0.571433","0.346583"
"0.23929","-0.46969399999999994","0.265047"
"0.036675","-0.395135","0.086918"
"-0.296266","-0.265766","-0.370127"
"-0.702012","0.839184","-0.815861"
"-0.620748","1.347086","-0.299202"
"-0.516112","1.096555","-0.18759800000000001"
"-0.5045029999999999","0.066236","-0.127111"
"0.142617","-0.618575","0.25253400000000004"
"0.111046","-0.186584","0.20128800000000002"
"0.34329699999999996","0.332104","-0.013507"
"0.5917560000000001","0.733847","-0.217507"
"0.838484","0.365498","-0.196275"
"0.840556","-0.11435899999999999","0.343592"
"0.461668","0.153538","0.345458"
"0.339219","0.527299","-0.0019649999999999997"
"0.36495900000000003","0.502979","0.125596"
"0.39884200000000003","0.13888399999999998","0.056826999999999996"
"0.42158500000000004","-0.16423","0.015165999999999999"
"0.383255","-0.21571300000000002","0.06850099999999999"
"0.31205","-0.15458","0.129418"
"0.15249400000000002","-0.168941","0.10494200000000001"
"0.030832","-0.184783","0.012228"
"-0.057252","-0.30097399999999996","-0.163949"
"-0.082932","-0.296444","-0.017234"
"-0.026338","-0.22415","0.126338"
"-0.027957999999999997","-0.174645","0.09489199999999999"
"-0.163445","-0.058267","-0.265681"
"-0.160389","0.096604","-0.553079"
"0.014200999999999998","0.188442","-0.032904"
"0.25117","0.27149","0.060940999999999995"
"0.284188","0.416756","-0.197244"
"0.20635900000000001","0.496551","-0.176644"
"0.09228","0.518882","-0.276943"
"0.014946000000000001","0.200051","-0.395486"
"0.023594999999999998","0.193018","-0.355055"
"0.185696","0.597966","-0.063904"
"0.006074","0.583711","-0.08719500000000001"
"-0.34186300000000003","0.487752","0.6623640000000001"
"0.201789","0.502923","0.928681"
"0.641306","0.641297","0.343625"
"0.692918","0.8724649999999999","0.10079099999999999"
"0.366023","0.44501999999999997","0.12633699999999998"
"0.061127999999999995","0.016182","-0.019765"
"0.020853","-0.27574699999999996","0.43349499999999996"
"0.073824","-0.41974399999999995","0.701232"
"0.381396","-0.6634359999999999","0.475879"
"0.576164","-0.5393180000000001","0.220176"
"0.482548","-0.320383","0.314777"
"0.455858","-0.389538","0.329764"
"0.34633","-0.46663699999999997","0.325445"
"0.251447","-0.508548","0.288191"
"0.057932000000000004","-0.577481","0.12211099999999998"
"-0.232398","-0.598336","-0.154967"
"-0.48953599999999997","-0.28625300000000004","-0.41886999999999996"
"-0.608089","0.877233","-0.6973729999999999"
"-0.503254","1.7203099999999998","-0.6636890000000001"
"-0.428688","0.49053199999999997","-0.50578"
"-0.19016","-0.62098","-0.175675"
"-0.054574","-0.792507","0.025958"
"0.031487","-0.67237","0.306917"
"-0.049627","-0.072892","0.5659069999999999"
"0.025276","0.674579","0.5844"
"0.49433999999999995","2.2988009999999997","-0.47714300000000004"
"1.1727940000000001","0.373785","0.475383"
"0.723441","-0.600381","0.414835"
"0.260891","-0.193548","0.186923"
"0.41874300000000003","0.41506000000000004","-0.073638"
"0.537749","0.368302","0.403654"
"0.37903600000000004","0.030195","0.261762"
"0.206835","-0.087865","0.154248"
"0.013599000000000002","-0.057304999999999995","0.11300299999999999"
"0.108181","-0.011317","0.171514"
"0.157726","-0.25857199999999997","0.011866"
"0.16156900000000002","-0.30194299999999996","-0.20856999999999998"
"0.145103","-0.338163","-0.257562"
"0.022718000000000002","-0.23086900000000002","0.019972"
"-0.057289","-0.102556","0.127055"
"-0.078548","0.040782","-0.00715"
"-0.11727699999999999","0.06356200000000001","-0.834883"
"-0.031138","0.080794","-0.500031"
"0.063829","0.125218","-0.055739"
"0.199791","0.47189200000000003","-0.477233"
"0.205127","0.47106099999999995","-0.471445"
"0.198459","0.422771","-0.472354"
"-0.062333000000000006","0.253671","-0.492367"
"-0.012498","0.183653","-0.297166"
"0.067864","0.161162","-0.042818"
"0.110194","0.597029","0.079721"
"0.30299699999999996","0.8829940000000001","0.7890510000000001"
"0.53087","0.628787","0.9669120000000001"
"0.46102200000000004","0.611933","0.283454"
"0.426392","0.680351","0.32652800000000004"
"0.058675","0.366691","0.270604"
"-0.41317","-0.16001400000000002","0.139002"
"-0.122781","-0.323533","0.223148"
"0.418886","-0.29695900000000003","0.26718200000000003"
"0.521451","-0.360296","0.300689"
"0.451284","-0.465688","0.306618"
"0.444883","-0.48742399999999997","0.359718"
"0.40434699999999996","-0.4866","0.341852"
"0.40216399999999997","-0.5781850000000001","0.382181"
"0.306153","-0.643714","0.36877600000000005"
"0.14937899999999998","-0.58478","0.24481999999999998"
"-0.014425","-0.44909799999999994","-0.060503999999999995"
"-0.36332","-0.12028399999999999","-0.664671"
"-0.680322","0.703259","-1.1276950000000001"
"-0.218955","1.797914","-0.183059"
"-0.38615900000000003","0.607981","-0.25278"
"-0.290833","-0.45250799999999997","-0.21681799999999998"
"-0.24039699999999997","-0.665492","-0.188934"
"0.044308999999999994","-0.505116","0.11408900000000001"
"0.084969","-0.115445","0.079201"
"0.405073","0.46144399999999997","0.310668"
"0.797133","1.367987","0.23869"
"0.537813","0.815299","0.503508"
"0.536411","-0.24814299999999997","0.655583"
"0.33121799999999996","0.077592","0.199068"
"0.453288","0.519799","-0.0006940000000000001"
"0.681501","0.365938","0.279142"
"0.569213","0.110072","0.296538"
"0.163098","-0.11856099999999999","0.340417"
"-0.005372999999999999","-0.172006","0.319525"
"-0.148627","-0.119154","0.042253"
"-0.043875","-0.35986599999999996","-0.069445"
"0.045433999999999995","-0.39509099999999997","-0.169905"
"0.160172","-0.400807","-0.26238"
"0.24554099999999998","-0.191358","0.004297"
"0.18375","-0.141651","0.081787"
"0.096682","-0.067993","0.022961000000000002"
"0.064848","0.009003","-0.7396199999999999"
"0.057373","0.011106","-0.754205"
"0.186194","0.080856","0.040645"
"-0.013927000000000002","0.37048600000000004","-0.394243"
"0.055215","0.47074399999999994","-0.24504099999999998"
"0.124118","0.576024","-0.11747"
"0.017929","0.416434","-0.5660689999999999"
"0.22514499999999998","0.447358","-0.285182"
"0.5054270000000001","0.303847","0.002299"
"0.663197","0.407549","0.128529"
"0.6051850000000001","0.731488","0.402482"
"-0.116346","0.601123","0.938586"
"-0.13376","0.6431720000000001","0.30236399999999997"
"-0.035008","0.762317","0.104924"
"0.337548","0.562524","0.5753189999999999"
"0.45731099999999997","0.15981900000000002","0.447117"
"0.403554","-0.094591","0.025804"
"0.173728","-0.372988","0.131548"
"0.264798","-0.290298","0.24364"
"0.30694499999999997","-0.45419799999999994","0.389404"
"0.407438","-0.5102899999999999","0.47063900000000003"
"0.325265","-0.60839","0.558196"
"0.236769","-0.556347","0.49523900000000004"
"0.18297","-0.610908","0.42686199999999996"
"0.115172","-0.611133","0.36032800000000004"
"0.051328","-0.601358","0.230264"
"-0.013138","-0.5078159999999999","0.048182"
"-0.16912","-0.194947","-0.07105"
"-0.160425","0.328156","-0.43410699999999997"
"0.117388","1.687819","-0.944725"
"0.25556799999999996","0.939983","-1.0164819999999999"
"0.35713","-0.11356199999999998","-0.9244209999999999"
"0.314815","-0.533165","-0.671457"
"0.025405","0.00047999999999999996","0.139561"
"0.33619499999999997","0.661239","0.626659"
"0.5613060000000001","1.079123","0.9215549999999999"
"0.265995","-0.150677","0.9300790000000001"
"0.12038099999999999","-0.40821399999999997","0.937282"
"-0.8959379999999999","-0.554127","0.145839"
"0.810561","0.7666189999999999","0.082441"
"1.0627469999999999","0.419951","0.17038399999999998"
"0.9919030000000001","0.156378","0.590561"
"0.46197","-0.125368","0.19425499999999998"
"0.301019","-0.047882","0.20940799999999998"
"0.10675","-0.033042","0.363888"
"-0.097992","-0.157404","0.054975"
"0.085734","-0.29629","-0.048395"
"0.182016","-0.327308","-0.157078"
"0.255893","-0.241948","-0.094349"
"0.219577","-0.21928899999999998","-0.096339"
"0.156345","-0.185351","-0.08519600000000001"
"0.222444","0.09219400000000001","-0.23137199999999997"
"0.288775","0.182119","-0.405869"
"0.32324899999999995","0.232544","-0.5542090000000001"
"-0.008776","0.41092399999999996","-0.44438500000000003"
"-0.017261000000000002","0.433137","-0.48077"
"0.354757","0.48473900000000003","-0.175176"
"0.026505","0.652447","-0.566248"
"-0.061765999999999995","0.483141","-0.64865"
"0.015645","0.116131","-0.012636"
"-0.132449","0.17002899999999999","-0.094628"
"-0.08570499999999999","0.278188","0.087186"
"0.539192","1.0195239999999999","0.6828270000000001"
"0.223115","0.807405","0.768418"
"-0.091049","0.835899","0.249921"
"-0.19581700000000002","0.678964","0.495845"
"-0.06674400000000001","0.14288499999999998","0.260858"
"0.123919","-0.16708900000000002","0.0031969999999999998"
"0.331425","-0.397875","-0.052082"
"0.324833","-0.5406529999999999","0.44983100000000004"
"0.360639","-0.5867939999999999","0.495433"
"0.568156","-0.508948","0.484044"
"0.47505699999999995","-0.531825","0.41644200000000003"
"0.452545","-0.560893","0.398187"
"0.315483","-0.58919","0.38414"
"0.19627","-0.629236","0.298297"
"0.0534","-0.638317","0.13683"
"-0.09288300000000001","-0.5979979999999999","-0.157996"
"-0.207992","-0.232183","-0.405549"
"-0.379587","0.25995799999999997","-0.692504"
"-0.451946","2.4597689999999997","-0.98115"
"-0.43294499999999997","0.337731","-0.6133529999999999"
"-0.270859","-1.008383","-0.385825"
"-0.270881","-0.323681","0.07447100000000001"
"-0.005254","0.7226739999999999","0.267945"
"0.11833900000000001","1.1640620000000002","0.134026"
"0.625678","0.273127","0.562179"
"0.252575","-0.654673","0.8556889999999999"
"0.211761","-0.473929","0.5428810000000001"
"0.31546799999999997","0.509754","0.100863"
"0.71033","0.52199","0.47738400000000003"
"0.527713","0.24374099999999999","0.342089"
"0.389676","0.046196","0.232454"
"0.29599000000000003","-0.009145","0.164075"
"0.214917","-0.155859","0.09705"
"0.096178","-0.252718","-0.032688"
"0.08317000000000001","-0.48911400000000005","-0.035953"
"0.113008","-0.43946999999999997","0.02685"
"0.044541000000000004","-0.374854","-0.016905"
"0.12384500000000001","-0.134491","-0.19998"
"0.21270300000000003","-0.160511","-0.097687"
"0.197683","0.055223","0.341016"
"0.018661","0.215658","0.047976"
"-0.06076","0.48825","-1.316876"
"0.335296","0.46305100000000005","-0.6574810000000001"
"0.620038","0.22491799999999998","-0.052296"
"0.2891","0.381159","-0.09685"
"-0.117877","0.501452","-0.286419"
"0.10745199999999999","0.353111","-0.258494"
"0.22751999999999997","0.38256399999999996","-0.003111"
"-0.086146","0.533454","0.08026599999999999"
"-0.45143900000000003","0.352179","0.26262399999999997"
"-0.41625100000000004","0.55456","0.588713"
"-0.36282600000000004","0.64408","0.454057"
"-0.221189","0.72483","0.410074"
"-0.10939700000000001","0.748128","0.411483"
"0.010534","0.436057","0.46384"
"0.221507","0.168794","0.416545"
"0.433745","-0.166121","0.284163"
"0.343748","-0.552261","0.193113"
"0.2779","-0.828134","0.716955"
"0.47244899999999995","-0.784528","0.6017140000000001"
"0.326575","-0.612256","0.5183810000000001"
"0.320887","-0.589378","0.417792"
"0.31247199999999997","-0.619943","0.379319"
"0.196349","-0.730075","0.29652399999999995"
"0.078889","-0.73047","0.173061"
"0.058347","-0.730391","0.030718000000000002"
"-0.11643599999999998","-0.341439","-0.441355"
"-0.321473","0.747707","-1.138376"
"-0.38493299999999997","2.143162","-1.233272"
"-0.741374","0.9328110000000001","-0.641057"
"-0.247656","-0.349648","-0.132529"
"-0.540254","-0.13421","0.283875"
"0.014653999999999999","0.376204","0.653345"
"0.0159","0.8307530000000001","0.585184"
"0.195233","0.040534","0.5860810000000001"
"0.229674","-0.246069","0.30750900000000003"
"0.480745","-0.054811","0.510146"
"0.45743500000000004","0.285382","0.262973"
"0.672619","0.301887","0.131119"
"0.613458","0.146586","0.36118"
"0.29558","-0.128921","0.320965"
"0.182513","-0.24979899999999997","0.25169600000000003"
"-0.016572999999999997","-0.358375","0.31617199999999995"
"-0.21564299999999997","-0.315923","-0.010015000000000001"
"-0.10798800000000001","-0.304532","0.036707"
"0.10524100000000002","-0.321253","0.12651300000000001"
"0.186365","-0.30613","0.243648"
"0.101266","-0.143837","0.184535"
"0.199434","0.041595","0.15196300000000001"
"0.22014699999999998","0.07792","-0.155108"
"0.29596","0.29378200000000004","-0.882499"
"0.44660900000000003","0.258875","-0.283935"
"0.258977","0.377158","-0.269569"
"0.110422","0.426335","-0.37853600000000004"
"0.403915","0.256015","-0.07796900000000001"
"0.386372","0.315558","-0.037437"
"0.047153","0.426526","-0.268282"
"0.11520899999999999","0.421613","0.0020870000000000003"
"0.200184","0.340885","0.183678"
"-0.091887","0.282022","0.162028"
"-0.38640599999999997","0.369875","0.283632"
"-0.27718400000000004","0.44045","0.532489"
"-0.191664","0.586955","0.422235"
"-0.22460100000000002","0.793587","0.253583"
"-0.032981","0.633829","0.26059699999999997"
"0.251617","0.472545","0.48135500000000003"
"0.43488000000000004","-0.112516","0.170974"
"0.47903500000000004","-0.29533000000000004","-0.023162000000000002"
"0.39363400000000004","-0.395023","0.06242"
"0.193574","-0.575389","0.653421"
"0.200157","-0.563998","0.670813"
"0.218408","-0.675863","0.6808"
"0.161128","-0.659725","0.57436"
"0.10954100000000001","-0.706476","0.531123"
"0.047982","-0.6856369999999999","0.43133"
"-0.0755","-0.606337","0.343171"
"-0.143291","-0.583194","0.15731900000000001"
"-0.08903","-0.42765699999999995","-0.157318"
"-0.055462","0.380296","-0.718394"
"-0.017731999999999998","2.08518","-1.29357"
"-0.446751","1.307164","-1.239655"
"-0.107522","-0.337254","-0.681109"
"-0.07775800000000001","-0.770192","0.101406"
"-0.084401","0.12721500000000002","0.687247"
"0.267173","0.724761","0.894222"
"0.283377","1.171227","1.055107"
"0.40973100000000007","0.111704","0.5253909999999999"
"0.143043","-0.305175","0.555098"
"0.23738099999999998","0.202322","0.055488"
"0.367053","0.25892600000000005","0.345627"
"0.315207","-0.11133299999999999","0.47282799999999997"
"0.288614","-0.012354","0.283382"
"0.35970100000000005","-0.020425","0.265046"
"0.25540300000000005","-0.170593","0.39394"
"0.226767","-0.18093399999999998","0.349066"
"-0.33111","-0.38845","0.048861"
"-0.182836","-0.419922","-0.0258"
"-0.044385","-0.37655","-0.047177"
"0.278026","-0.28988800000000003","0.081094"
"0.300867","-0.14994100000000002","0.19206600000000001"
"0.157931","0.035474","0.154473"
"0.094213","0.24359","-0.432021"
"0.168337","0.432907","-0.886575"
"0.373145","0.401876","-0.266075"
"0.29490500000000003","0.426437","-0.270377"
"0.289188","0.23697","-0.21734099999999998"
"0.299702","0.46004700000000004","-0.17893499999999998"
"0.38088099999999997","0.7353729999999999","-0.12850599999999998"
"0.343647","0.600202","0.201897"
"0.044751","0.399828","0.404643"
"-0.41248","0.30635100000000004","0.254368"
"-0.329181","0.31610900000000003","0.32091"
"-0.205781","0.514518","0.442086"
"-0.09778400000000001","0.643946","0.491353"
"-0.154502","0.691034","0.297398"
"-0.152274","0.704908","0.350168"
"0.121082","0.3858","0.51451"
"0.44348999999999994","0.08239500000000001","0.269757"
"0.409425","-0.036051","0.32875"
"0.305118","-0.131196","0.374636"
"0.091351","-0.630761","0.592693"
"0.058121000000000006","-0.723467","0.636983"
"0.15326800000000002","-0.7668729999999999","0.559912"
"0.218678","-0.625913","0.5517350000000001"
"0.191244","-0.565716","0.539836"
"0.162518","-0.558871","0.48330100000000004"
"0.10498099999999999","-0.6247","0.411397"
"0.038707","-0.63974","0.24615900000000002"
"-0.043746","-0.627402","0.012029"
"-0.155341","-0.213085","-0.274963"
"-0.14261600000000002","1.1537629999999999","-0.994498"
"0.0012699999999999999","2.521547","-1.05759"
"-0.626831","0.502292","-1.110419"
"-0.248415","-0.872075","-0.373136"
"-0.138723","-0.583457","0.277818"
"0.16835799999999998","0.41558500000000004","0.579467"
"0.36633899999999997","0.7578590000000001","0.8399110000000001"
"0.347127","0.783036","0.647675"
"0.35894299999999996","-0.404398","0.73461"
"0.14890899999999999","-0.530848","1.010207"
"0.322273","0.729429","-0.11289400000000001"
"0.46269399999999994","0.624197","0.149855"
"0.403483","0.038454","0.46401800000000004"
"0.288321","-0.10247","0.363871"
"0.239709","-0.024825999999999997","0.27938"
"0.116289","-0.198603","0.460687"
"0.00519","-0.250372","0.262977"
"-0.143344","-0.298611","0.015609"
"-0.082636","-0.335938","-0.034628"
"0.11901500000000001","-0.321416","-0.011439"
"0.24756199999999998","-0.41763900000000004","0.107199"
"0.26294","-0.37274","0.18613"
"0.08552699999999999","-0.102844","0.157872"
"0.044566","0.19701","-0.182008"
"0.09367","0.307336","-0.664968"
"0.360377","0.327354","-0.350218"
"0.28110599999999997","0.281044","-0.32463400000000003"
"0.283514","0.254741","-0.262925"
"0.420529","0.226541","-0.088961"
"0.115668","0.406181","-0.131731"
"-0.069881","0.37043400000000004","-0.199303"
"0.023691999999999998","0.37509899999999996","-0.057599000000000004"
"0.20661","0.287835","0.190223"
"0.12928800000000001","0.440863","0.225253"
"0.030610000000000002","0.439259","0.279458"
"-0.424117","0.61953","0.6139600000000001"
"-0.437072","0.623265","0.666253"
"-0.220793","0.679776","0.018627"
"0.002076","0.427874","0.333665"
"0.032624","0.44050100000000003","0.36983699999999997"
"0.325251","0.12398900000000002","0.4462"
"0.538963","-0.074198","0.383176"
"0.450063","-0.168476","0.342762"
"0.312799","-0.33658299999999997","0.40016599999999997"
"0.086469","-0.649861","0.534917"
"0.15115399999999998","-0.611531","0.549248"
"0.167448","-0.7107600000000001","0.574915"
"0.15220699999999998","-0.723302","0.504694"
"0.141213","-0.6606270000000001","0.5334369999999999"
"0.059597000000000004","-0.6520130000000001","0.443913"
"0.011761","-0.593804","0.30931"
"-0.043302","-0.525963","0.088894"
"-0.140904","-0.180982","-0.19791199999999998"
"-0.015241999999999999","1.130331","-0.980741"
"-0.12388099999999999","2.655856","-1.3505559999999999"
"-0.26527399999999995","-0.5100439999999999","-0.8865129999999999"
"-0.050131","-0.927376","-0.5052220000000001"
"0.076061","-0.729377","0.229028"
"0.380934","0.783467","0.9515629999999999"
"0.365699","2.069436","0.9202049999999999"
"0.608564","-0.059288","0.518929"
"0.20286300000000002","-0.61102","1.01163"
"-0.235704","-0.456095","0.28434299999999996"
"0.09688","0.6964600000000001","-0.356618"
"0.466763","0.435517","0.587727"
"0.44557399999999997","0.195385","0.440126"
"0.24946999999999997","0.102655","0.317972"
"0.17490999999999998","-0.024637","0.258486"
"0.187593","-0.23399499999999998","0.34066399999999997"
"0.03174","-0.393809","0.174296"
"-0.034717000000000005","-0.39210300000000003","0.153855"
"-0.014487","-0.287124","0.08165700000000001"
"0.134512","-0.340932","0.08619299999999999"
"0.214285","-0.387809","0.156314"
"0.23318899999999998","-0.206537","0.239387"
"0.10856400000000001","0.020321000000000002","0.026086"
"0.019129","0.18932100000000002","-0.42531599999999997"
"0.248486","0.289583","-0.623546"
"0.422195","0.22301700000000002","-0.412691"
"0.251458","0.470199","-0.572315"
"0.339909","0.22601300000000002","-0.138217"
"0.328561","0.314151","-0.091836"
"0.243339","0.442299","-0.11243"
"0.090049","0.48314700000000005","0.128295"
"0.07575","0.418318","0.322483"
"0.06907","0.365571","0.357625"
"-0.39011599999999996","0.331498","0.228575"
"-0.312803","0.292302","0.404113"
"-0.22496799999999997","0.40407","0.46263000000000004"
"-0.12735","0.784856","0.40076799999999996"
"-0.122195","0.7150029999999999","0.294892"
"-0.087995","0.631141","0.30146"
"0.149399","0.111784","0.45023900000000006"
"0.269016","0.035836","0.464225"
"0.358457","-0.005435","0.632185"
"0.27946","-0.458541","0.455787"
"0.167675","-0.605999","0.543449"
"0.007175","-0.8076979999999999","0.613114"
"0.10953099999999999","-0.728749","0.594604"
"0.156358","-0.649523","0.472804"
"0.132881","-0.535728","0.456926"
"0.057727999999999995","-0.523931","0.420817"
"0.027719","-0.533957","0.26550799999999997"
"0.007388","-0.529144","0.05635"
"-0.032751","-0.353049","-0.186358"
"-0.09038600000000001","0.5113300000000001","-0.624447"
"0.065778","1.8731959999999999","-0.804037"
"-0.474855","1.079436","-1.0382209999999998"
"-0.39520500000000003","0.313899","-0.988194"
"0.014763","-0.82676","-0.386179"
"0.107357","-0.628458","0.45828800000000003"
"0.021951","0.19811800000000002","0.6203960000000001"
"0.22573200000000002","1.304641","0.637533"
"0.416784","1.298309","0.628743"
"0.409357","-0.159636","0.913574"
"-0.056029999999999996","-0.526297","0.504948"
"-3.6e-05","0.025682999999999997","-0.041944999999999996"
"0.323176","0.554392","0.22175599999999998"
"0.536827","0.261613","0.5638270000000001"
"0.460071","0.230417","0.387834"
"0.42011499999999996","0.13278299999999998","0.20929"
"0.283634","-0.054951","0.385613"
"0.097831","-0.198831","0.343996"
"-0.072279","-0.213891","0.17594100000000001"
"-0.261253","-0.42911000000000005","0.006539"
"-0.097213","-0.385992","0.061283000000000004"
"0.071366","-0.428457","0.062254"
"0.184647","-0.419059","0.131393"
"0.233211","-0.15792","0.252392"
"0.178259","0.08173899999999999","0.117719"
"0.122772","0.192154","-0.43672700000000003"
"0.328307","0.293825","-0.401991"
"0.34479299999999996","0.335776","-0.314655"
"0.287082","0.33015700000000003","-0.444453"
"0.301324","0.332568","-0.13667100000000001"
"0.261981","0.44445","-0.202455"
"0.23508400000000002","0.5249189999999999","-0.274696"
"0.196681","0.492364","0.158645"
"0.100468","0.413278","0.283864"
"0.035082","0.390988","0.33163200000000004"
"-0.310411","0.407103","0.383761"
"-0.249115","0.532702","0.5113270000000001"
"-0.21390100000000004","0.616546","0.503274"
"-0.240875","0.8873479999999999","0.193551"
"-0.22246799999999997","0.816523","0.23016399999999998"
"0.19175999999999999","0.375098","0.565738"
"0.472129","0.105495","0.534858"
"0.5360050000000001","-0.008797","0.532713"
"0.23439000000000002","-0.475391","0.346056"
"0.029789999999999997","-0.738599","0.655033"
"0.054549","-0.8356680000000001","0.70055"
"0.210186","-0.723753","0.6222880000000001"
"0.23940799999999998","-0.587393","0.550218"
"0.21878899999999998","-0.530155","0.51948"
"0.055098","-0.598863","0.5068630000000001"
"-0.014209000000000001","-0.661334","0.371949"
"-0.073922","-0.660957","0.095307"
"-0.063637","-0.49366000000000004","-0.145653"
"-0.09816799999999999","0.406301","-0.658791"
"0.17656","2.1910849999999997","-1.067264"
"-0.5320550000000001","1.458469","-1.105054"
"-0.07613400000000001","-0.21330900000000003","-0.687474"
"-0.283325","-0.271221","-0.050051"
"-0.14646099999999998","0.717299","0.549614"
"0.375671","1.57958","0.903309"
"0.534679","-0.529446","0.812062"
"0.027888","-0.923198","1.117475"
"0.105893","-0.446141","0.49069799999999997"
"0.24631999999999998","0.20861300000000002","0.100906"
"0.572689","0.805673","0.49694099999999997"
"0.5113840000000001","0.46783199999999997","0.45426000000000005"
"0.425246","0.37590100000000004","0.254474"
"0.36656500000000003","0.190415","0.164989"
"0.246","-0.137949","0.2354"
"0.153167","-0.33765500000000004","0.186444"
"0.058386","-0.37831","0.131026"
"0.035813","-0.40635","0.24436599999999997"
"0.051812000000000004","-0.336292","0.09740900000000001"
"0.074321","-0.361822","-0.027098"
"0.105261","-0.3673","-0.025712"
"0.159511","-0.272009","0.274669"
"0.056792999999999996","-0.039611","0.272183"
"-0.013243000000000001","0.186472","-0.144013"
"0.04358","0.335754","-0.566393"
"0.108563","0.33378","-0.930593"
"0.312198","0.206684","-0.179283"
"0.224629","0.151285","-0.175739"
"0.43324399999999996","0.24215100000000003","0.01701"
"0.259471","0.389888","-0.27115500000000003"
"0.041112","0.47844899999999996","-0.384773"
"0.207565","0.16778099999999999","-0.12058800000000001"
"0.26845","0.44168599999999997","0.11689000000000001"
"0.15298","0.383832","0.263131"
"0.040212","0.597854","0.49923100000000004"
"-0.28613099999999997","0.783606","0.688617"
"-0.38203400000000004","0.6756840000000001","0.53285"
"-0.245205","0.6534810000000001","0.226944"
"0.021852","0.5498930000000001","0.419155"
"0.181055","0.537143","0.539284"
"0.41002299999999997","0.19577999999999998","0.42805299999999996"
"0.477224","0.090587","0.211463"
"0.154616","-0.213894","0.315981"
"0.016094999999999998","-0.58838","0.533629"
"0.18845","-0.678084","0.5097430000000001"
"0.299809","-0.737839","0.577182"
"0.21658000000000002","-0.689407","0.498961"
"0.19045399999999998","-0.618946","0.490609"
"0.187603","-0.639386","0.486291"
"0.09189","-0.675833","0.44121800000000005"
"-0.005577","-0.6623","0.20806599999999997"
"-0.022036","-0.669601","0.076007"
"-0.037525","-0.548481","-0.088647"
"0.083215","1.106539","-0.9233120000000001"
"0.125997","2.308773","-1.260536"
"-0.742754","0.348921","-1.070774"
"-0.224316","-1.1178549999999998","-0.32750799999999997"
"-0.080914","-0.759425","-0.09801499999999999"
"0.403358","1.344805","0.931773"
"0.568852","1.649309","0.740667"
"0.468724","-0.353376","0.611535"
"0.2692","-0.697599","0.761638"
"0.309382","0.184625","0.306025"
"0.579583","0.7933479999999999","0.159865"
"0.5634100000000001","0.477121","0.38711"
"0.422752","0.18698299999999998","0.192919"
"0.396385","0.002207","0.22725700000000001"
"0.181314","-0.0839","0.24413400000000002"
"-0.03362","-0.22512","0.148562"
"-0.31156500000000004","-0.340449","0.063481"
"-0.30735100000000004","-0.428802","0.013916999999999999"
"0.084103","-0.373762","-0.0006929999999999999"
"0.220419","-0.32302600000000004","-0.017092"
"0.41519799999999996","-0.23722800000000002","0.070309"
"0.36632","-0.163931","0.151046"
"0.202049","0.000596","0.067271"
"0.013419","0.10578","-0.30956"
"-0.031713","0.295804","-0.458442"
"0.067446","0.28084699999999996","-0.307533"
"0.253101","0.15448599999999998","-0.324639"
"0.21517199999999997","0.305666","-0.182475"
"0.251761","0.474764","-0.041571"
"0.458242","0.931982","0.224583"
"0.455427","0.8245040000000001","0.31372"
"0.047388","0.41953100000000004","0.15626800000000002"
"-0.61454","-0.18457","-0.150903"
"-0.338318","-0.15905","0.220425"
"-0.044826","0.110028","0.360952"
"0.191707","0.766464","0.500648"
"0.07896900000000001","0.772482","0.559068"
"-0.15855","0.620454","0.469157"
"0.076423","0.362297","0.516374"
"0.185497","0.030054","0.569451"
"0.252368","-0.155443","0.24104099999999998"
"0.10900399999999999","-0.43249499999999996","0.202576"
"0.22612","-0.454797","0.375145"
"0.225704","-0.5108729999999999","0.508785"
"0.249079","-0.546901","0.5240600000000001"
"0.22553600000000001","-0.571658","0.5171859999999999"
"0.22339","-0.568571","0.522911"
"0.20058199999999998","-0.629559","0.38043899999999997"
"0.059034","-0.687991","0.16682"
"0.017276","-0.688906","0.02815"
"-0.08332200000000001","-0.491033","-0.218454"
"-0.15855999999999998","0.32789","-0.631628"
"0.171939","2.082187","-0.865864"
"-0.42068500000000003","1.162112","-1.036054"
"-0.265468","-0.637012","-0.373949"
"-0.369093","-0.625175","-0.062948"
"-0.272574","0.481915","0.5399930000000001"
"0.24925100000000003","1.29162","0.683068"
"0.153394","0.48203500000000005","0.43746"
"0.202131","-0.686175","0.6372979999999999"
"0.350992","-0.519046","0.900423"
"0.49100900000000003","0.370105","0.352339"
"0.55971","0.851261","0.33318400000000004"
"0.602114","0.534617","0.504142"
"0.414501","0.190602","0.358528"
"0.1716","0.014838999999999998","0.251782"
"-0.0121","-0.246193","0.190255"
"-0.077185","-0.38863000000000003","0.092282"
"-0.050569","-0.392004","0.087588"
"0.09624500000000001","-0.27818200000000004","0.26621999999999996"
"0.26711799999999997","-0.17821900000000002","0.16353800000000002"
"0.276954","-0.124419","0.060877999999999995"
"0.21869699999999997","-0.154944","0.157873"
"0.203452","-0.196417","0.09997"
"0.177282","-0.20953200000000002","0.11028299999999999"
"-0.02471","-0.059852999999999996","-0.12756099999999998"
"-0.099106","0.212562","-0.49758900000000006"
"0.213914","0.21792399999999998","-0.40375500000000003"
"0.300722","0.357684","-0.197905"
"0.10656800000000001","0.34776799999999997","-0.346005"
"0.203965","0.261101","-0.099003"
"0.2105","0.39828800000000003","0.09427"
"0.033204000000000004","0.5504439999999999","-0.25497"
"0.12681099999999998","0.48820399999999997","-0.153096"
"0.227102","0.41484799999999994","0.003062"
"0.260646","0.290012","0.210959"
"-0.066953","0.155887","0.149991"
"-0.16003199999999998","0.222664","0.294723"
"-0.088363","0.326121","0.452172"
"-0.068622","0.810229","0.55974"
"-0.130717","0.746065","0.340412"
"-0.151337","0.710529","0.340028"
"0.053939","0.35899200000000003","0.596712"
"0.32153200000000004","0.12687","0.585757"
"0.445326","0.048555","0.611216"
"0.284939","-0.25014000000000003","0.22954899999999998"
"0.011417","-0.664763","0.39822399999999997"
"0.022941","-0.58385","0.58482"
"0.16777","-0.570172","0.635455"
"0.167277","-0.557281","0.613326"
"0.092212","-0.530438","0.5648880000000001"
"0.071242","-0.49627299999999996","0.53123"
"-0.049699","-0.590436","0.36640700000000004"
"-0.088765","-0.568225","0.260535"
"-0.10544500000000001","-0.601217","0.097835"
"-0.09109099999999999","0.221956","-0.441363"
"-0.012169","0.968642","-0.8133199999999999"
"0.031936","2.066661","-0.889025"
"-0.157721","-0.074459","-0.851455"
"-0.056663","-0.47517","-0.6865479999999999"
"0.035039999999999995","-0.204775","0.38502800000000004"
"0.13289600000000001","0.42961099999999997","0.654396"
"0.048279","0.8495020000000001","0.589046"
"0.103126","0.5725680000000001","0.788866"
"0.165976","-0.18576900000000002","0.753163"
"0.072742","-0.247973","0.672759"
"0.14257899999999998","0.314257","0.167965"
"0.43278199999999994","0.461863","0.30402399999999996"
"0.454495","0.30972","0.5251600000000001"
"0.42189099999999996","-0.026398","0.418308"
"0.42261899999999997","0.123046","0.26481"
"0.23618699999999998","0.019968","0.31597"
"-0.011503","-0.173156","0.245468"
"-0.211662","-0.428307","0.08566599999999999"
"-0.258327","-0.493992","0.08723"
"-0.064714","-0.337334","0.07971900000000001"
"0.236769","-0.24109299999999997","0.118904"
"0.33495","-0.10774500000000001","0.189917"
"0.291532","0.047651","0.14444400000000002"
"0.14649500000000001","0.10764100000000001","0.107574"
"0.090382","0.22846799999999998","-0.607359"
"0.179277","0.21665900000000002","-0.970831"
"0.259282","0.271056","-0.225775"
"0.157721","0.324741","-0.232435"
"0.148786","0.23808","-0.041874"
"0.18196800000000002","0.369437","0.045301"
"0.07674600000000001","0.408337","-0.15046800000000002"
"-0.073542","0.17948699999999998","-0.22049699999999997"
"-0.03723","0.110721","-0.069797"
"0.14371","-0.008331999999999999","-0.001745"
"0.301189","0.319965","0.241577"
"0.520502","0.49629399999999996","0.47613900000000003"
"0.07859400000000001","0.829084","0.8653280000000001"
"-0.5337","0.778555","0.48978299999999997"
"-0.48083400000000004","0.651146","0.149831"
"-0.14894300000000002","0.5403560000000001","0.40465300000000004"
"0.119948","0.388898","0.6416069999999999"
"0.309576","0.187593","0.486113"
"0.360667","0.177856","0.108053"
"0.166941","-0.075283","0.247523"
"0.084352","-0.408064","0.555936"
"0.062918","-0.506995","0.55945"
"0.133354","-0.8487180000000001","0.7224"
"0.13363","-0.778802","0.606521"
"0.12172999999999999","-0.656927","0.576713"
"0.063053","-0.6475529999999999","0.5784050000000001"
"-0.017332","-0.6651729999999999","0.467901"
"-0.066826","-0.677261","0.347829"
"-0.159671","-0.47808100000000003","0.023608"
"-0.053542","0.07732699999999999","-0.206789"
"0.046598","0.657345","-0.51188"
"-0.019466","2.35131","-0.898285"
"-0.304831","0.052994000000000006","-1.277695"
"0.10350899999999999","-0.888864","-0.7553880000000001"
"-0.15274400000000002","-0.172861","0.171449"
"0.40426","1.028751","1.051441"
"0.372911","1.63164","1.0818020000000002"
"0.29141300000000003","-0.470434","1.008343"
"-0.29388800000000004","-0.798007","0.985785"
"-0.267892","-0.327506","-0.09964500000000001"
"0.469709","1.028345","0.049565"
"0.550246","0.446108","0.771556"
"0.384035","-0.036799","0.532591"
"0.323968","0.093032","0.28442399999999995"
"0.21930999999999998","0.017684000000000002","0.495987"
"0.09567200000000001","-0.11978499999999999","0.45925"
"0.013332","-0.25761799999999996","0.311151"
"-0.100427","-0.35268299999999997","0.237623"
"-0.10962899999999999","-0.35825999999999997","0.197273"
"0.093464","-0.28442199999999995","0.06507"
"0.225875","-0.340605","0.12304000000000001"
"0.198024","-0.28294899999999995","0.091076"
"0.18391400000000002","-0.16748","0.07935"
"0.099819","0.087758","-0.08845399999999999"
"0.084252","0.115638","-0.35373699999999997"
"0.241704","0.23960700000000001","-0.44026000000000004"
"0.23628000000000002","0.246414","-0.347404"
"0.20260899999999998","0.369307","-0.378988"
"0.345711","0.24525500000000003","-0.083319"
"0.352488","0.33011599999999997","0.0952"
"0.121174","0.544867","-0.160184"
"-0.034314","0.578184","-0.039779"
"0.022152","0.238898","0.31304899999999997"
"-0.155454","0.280908","0.1636"
"-0.22742199999999999","0.31702199999999997","0.233927"
"-0.16909100000000002","0.330552","0.52885"
"-0.250776","0.612624","0.650267"
"-0.22113400000000002","0.739587","0.24142800000000003"
"-0.034992","0.6873630000000001","0.443173"
"0.171938","0.362041","0.58475"
"0.32814299999999996","0.009604999999999999","0.450308"
"0.41799200000000003","-0.146203","0.128532"
"0.19722","-0.39064699999999997","0.34231999999999996"
"0.076784","-0.534305","0.656708"
"0.121547","-0.624286","0.6517229999999999"
"0.145314","-0.62513","0.667113"
"0.06631799999999999","-0.570439","0.596197"
"0.054622000000000004","-0.506843","0.58329"
"0.044904","-0.503799","0.576685"
"-0.034979","-0.589346","0.467521"
"-0.112943","-0.639043","0.23834899999999998"
"-0.095625","-0.554962","0.026963"
"-0.045908","-0.030017000000000002","-0.15009"
"0.11893800000000002","1.365428","-0.784573"
"-0.061627","2.602284","-1.252682"
"-0.411195","0.220036","-1.42861"
"-0.008662999999999999","-0.918916","-0.401229"
"-0.11528","-0.300481","0.382352"
"0.43409","0.748274","1.176159"
"0.304616","1.385141","1.062155"
"0.21587199999999998","-0.184555","0.793331"
"0.10293599999999999","-0.361273","0.829778"
"0.06551","0.203701","0.172547"
"0.25088699999999997","0.739498","-0.030185000000000003"
"0.406883","0.79811","0.14971800000000002"
"0.26811599999999997","0.06341000000000001","0.44000200000000006"
"0.224755","0.033878","0.384436"
"0.256895","0.149595","0.264517"
"0.232675","-0.294902","0.390415"
"0.201124","-0.306311","0.35028200000000004"
"-0.233698","-0.338881","0.093145"
"0.018747999999999997","-0.263227","0.10368699999999999"
"0.015213999999999998","-0.267261","0.072521"
"0.23321","-0.285518","0.077999"
"0.237817","-0.236103","0.10320499999999999"
"0.193675","-0.089151","0.177509"
"0.078471","-0.031131","-0.107619"
"0.105348","0.16514600000000002","-0.613758"
"0.326782","0.234352","-0.287946"
"0.2347","0.370118","-0.37305900000000003"
"0.269714","0.339386","-0.194525"
"0.366589","0.19722699999999999","-0.053367"
"0.16728800000000002","0.5892649999999999","-0.156054"
"0.075657","0.622631","-0.054791"
"0.119603","0.46218400000000004","0.25604699999999997"
"-0.170213","0.24682800000000002","0.28963"
"-0.35192199999999996","0.19886199999999998","0.21701199999999998"
"-0.406046","0.19325","0.271025"
"-0.058046","0.46862700000000007","0.42498199999999997"
"-0.093248","0.65647","0.517893"
"-0.150499","0.724263","0.40525700000000003"
"-0.06818400000000001","0.518918","0.60778"
"0.13883","0.21873800000000002","0.438479"
"0.313345","-0.010043","0.342611"
"0.359046","-0.195271","0.242457"
"0.130189","-0.324621","0.5659890000000001"
"0.12438699999999998","-0.44942200000000004","0.65051"
"0.12094300000000001","-0.6576529999999999","0.614318"
"0.13755","-0.649422","0.594919"
"0.086156","-0.6502939999999999","0.569943"
"0.055390999999999996","-0.583254","0.509955"
"0.002716","-0.564475","0.421278"
"-0.067723","-0.6756939999999999","0.251913"
"-0.10276300000000001","-0.593287","0.040914"
"-0.11116300000000001","-0.154523","-0.11338"
"-0.086276","0.23935700000000001","-0.389599"
"-0.144926","2.725633","-1.121683"
"-0.581282","0.7436","-1.253745"
"-0.29279299999999997","-0.559645","-0.28541300000000003"
"-0.07674299999999999","-0.189429","0.346508"
"0.51361","1.25241","1.162976"
"0.312645","1.358427","0.8613350000000001"
"0.297795","0.496967","0.7241380000000001"
"-0.133699","-0.5960489999999999","0.9905370000000001"
"-0.26582","-0.390855","0.42418199999999995"
"0.018488","0.248772","-0.166124"
"0.569272","0.060525","0.731878"
"0.32014000000000004","-0.068436","0.577094"
"0.24476399999999998","-0.072104","0.42701000000000006"
"-0.020665","-0.220315","0.399681"
"-0.086021","-0.350587","0.280376"
"-0.159949","-0.39557600000000004","0.162125"
"0.12383699999999999","-0.186598","0.143782"
"0.226502","-0.182317","0.178806"
"0.179329","-0.10839100000000002","0.150581"
"0.127613","-0.043695","-0.023407"
"0.132421","-0.016638999999999998","-0.058464999999999996"
"0.03905","-0.0079","-0.210169"
"0.12748099999999998","0.11493099999999999","-0.388733"
"0.160348","0.17297200000000001","-0.392592"
"0.128683","0.249025","-0.336251"
"0.150534","0.35329699999999997","-0.371166"
"0.273982","0.240521","-0.17516400000000001"
"0.269994","0.342995","0.10627400000000001"
"-0.169374","0.387291","-0.298703"
"-0.21187899999999998","0.298577","-0.2393"
"0.043594","0.10417699999999999","0.123904"
"0.027219999999999998","0.420932","0.19118"
"0.07967","0.529021","0.330879"
"0.004189","0.896847","0.669918"
"-0.560034","0.784447","0.47970100000000004"
"-0.425831","0.532854","0.22147600000000003"
"-0.060153","0.542223","0.661764"
"0.190143","0.35691","0.333327"
"0.232643","0.061724","0.22659"
"0.26245","-0.108676","0.066109"
"0.09579","-0.20368","0.627911"
"0.07235599999999999","-0.477674","0.844563"
"0.20649099999999998","-0.674327","0.749282"
"0.27528600000000003","-0.636199","0.701521"
"0.23280700000000001","-0.630612","0.688533"
"0.07095599999999999","-0.52389","0.532791"
"0.006291","-0.5418109999999999","0.505853"
"-0.051233","-0.572861","0.455635"
"-0.13957","-0.510206","0.25959899999999997"
"-0.087176","-0.41984899999999997","0.058334000000000004"
"-0.062266999999999996","0.086283","-0.211024"
"0.010522","1.587134","-0.89013"
"-0.12475399999999999","2.200923","-1.06229"
"-0.137441","-0.399049","-0.8928510000000001"
"-0.003752","-0.595101","-0.053029999999999994"
"0.389187","0.371322","1.114339"
"0.477695","0.755634","1.356371"
"0.330849","1.090919","1.1340569999999999"
"0.159304","-0.17513","0.80883"
"-0.054952","-0.131703","0.570714"
"-0.161071","-0.052328999999999994","0.176225"
"0.461276","0.18526099999999998","0.620088"
"0.361806","-0.009251","0.612517"
"0.221144","-0.052489","0.476458"
"0.243319","0.078275","0.5109640000000001"
"0.13009600000000002","-0.141059","0.515614"
"-0.009691","-0.27075","0.44447"
"-0.123493","-0.28126","0.089818"
"-0.013741999999999999","-0.225187","-0.001259"
"0.096678","-0.20640999999999998","-0.002017"
"0.14294300000000001","-0.285783","0.234303"
"0.032434","-0.23764899999999997","0.176421"
"-0.025525","-0.033943","-0.074202"
"0.13211199999999998","0.20981","-0.526675"
"0.286517","0.240411","-0.601841"
"0.321833","0.329063","-0.274827"
"0.265406","0.387876","-0.187711"
"0.323565","0.265378","-0.109455"
"0.164597","0.481793","-0.06161799999999999"
"-0.109025","0.398437","-0.331631"
"-0.07563500000000001","0.33758","-0.210128"
"0.066478","-0.023573","0.056884000000000004"
"0.039285","0.112033","0.096505"
"0.040046","0.299331","0.22492399999999999"
"-0.059190999999999994","0.814683","0.681793"
"-0.360987","0.8719319999999999","0.712264"
"-0.568749","0.8559450000000001","0.608367"
"-0.30390700000000004","0.721743","0.33111999999999997"
"0.016662","0.49217700000000003","0.7519520000000001"
"0.160748","0.089527","0.515383"
"0.307673","0.068982","0.22091"
"0.328959","0.025581","0.065107"
"0.13539600000000002","-0.21457199999999998","0.41101499999999996"
"0.132839","-0.44057799999999997","0.704184"
"0.11963499999999999","-0.634827","0.703429"
"0.13274","-0.686683","0.681851"
"0.085882","-0.6065520000000001","0.591951"
"0.06611","-0.514599","0.601883"
"0.056413","-0.544333","0.595438"
"-0.068837","-0.569771","0.44873900000000005"
"-0.12434200000000001","-0.6457970000000001","0.21080100000000002"
"-0.104486","-0.577171","0.07976699999999999"
"0.09846","0.6020770000000001","-0.409887"
"0.196081","2.617492","-0.9902489999999999"
"-0.430476","1.28565","-1.36816"
"-0.401964","-0.5178649999999999","-0.8909090000000001"
"0.058771000000000004","-0.896084","0.21461"
"-0.084233","0.195304","0.6897949999999999"
"0.365699","0.6874859999999999","1.141622"
"0.19203499999999998","0.9189360000000001","0.8541719999999999"
"0.191325","9e-06","0.46495299999999995"
"0.12018399999999999","-0.228044","0.759963"
"0.036244","0.038963","0.134989"
"0.324446","0.46420200000000006","0.21832100000000002"
"0.484096","0.075753","0.723708"
"0.226921","-0.08254600000000001","0.301526"
"0.20878400000000003","0.033624","0.13577999999999998"
"0.23230599999999998","0.100018","0.17613299999999998"
"0.075339","-0.32088","0.33376"
"-0.04564","-0.393418","0.212445"
"-0.044715","-0.357041","0.11891099999999999"
"0.011726","-0.29067","0.131965"
"0.164435","-0.21833699999999998","0.206077"
"0.138036","-0.002468","0.15274000000000001"
"0.071467","0.072048","0.10637"
"0.042533999999999995","0.10670299999999999","-0.020424"
"0.197495","0.257422","-0.595971"
"0.33223600000000003","0.28593","-0.087426"
"0.264205","0.35739099999999996","-0.18694000000000002"
"0.252192","0.36144899999999996","-0.124396"
"0.324779","0.372253","0.031921"
"0.224532","0.443683","-0.002209"
"-0.167166","0.33062800000000003","-0.28458"
"-0.051990999999999996","0.073684","-0.078418"
"-0.008595","-0.043644999999999996","0.026823000000000003"
"-0.061733","0.105468","0.110793"
"0.253902","0.36554699999999996","0.342595"
"0.407775","0.5550579999999999","0.515842"
"-0.09299600000000001","0.8871620000000001","0.756097"
"-0.40111399999999997","0.8195819999999999","0.233802"
"-0.24320300000000003","0.720677","0.367127"
"0.040656","0.43571099999999996","0.7100390000000001"
"0.185792","0.045906999999999996","0.565775"
"0.274983","0.08868","0.42669799999999997"
"0.091666","-0.196671","0.27662600000000004"
"0.091249","-0.28580500000000003","0.5632199999999999"
"0.114843","-0.313246","0.670438"
"0.287194","-0.646173","0.768807"
"0.22167399999999998","-0.6583680000000001","0.698009"
"0.068505","-0.600042","0.586518"
"-0.008483","-0.58208","0.580484"
"-0.032639999999999995","-0.5940439999999999","0.537779"
"-0.047428","-0.573381","0.384884"
"-0.138562","-0.524062","0.19499"
"-0.08312","-0.27098099999999997","0.040352"
"0.11244100000000001","0.5420699999999999","-0.41455299999999995"
"0.300228","2.6358479999999997","-0.971975"
"-0.344952","0.25342800000000004","-1.258988"
"-0.294481","-0.493551","-1.055409"
"0.13269","-0.713163","-0.068776"
"-0.076562","0.160073","0.6230100000000001"
"0.50973","0.560447","1.274039"
"0.41695699999999997","0.83778","0.8339110000000001"
"0.28737199999999996","-0.259058","0.464636"
"0.022327","-0.425104","0.6559659999999999"
"0.041136","0.116442","-0.078432"
"0.409499","0.628254","0.416231"
"0.43756300000000004","0.42713999999999996","0.640221"
"0.215151","-0.018453","0.49607700000000005"
"0.168168","0.066911","0.195659"
"0.061519000000000004","-0.116449","0.328966"
"0.042477","-0.309194","0.250186"
"0.143112","-0.287426","0.18227000000000002"
"0.15671500000000002","-0.296212","0.179917"
"0.084576","-0.278464","0.31495100000000004"
"0.031798","-0.248086","0.331396"
"0.026497000000000003","-0.23454499999999998","0.24346900000000002"
"0.017013999999999998","0.07133400000000001","0.059625"
"0.13631400000000002","0.150535","-0.14796600000000001"
"0.203765","0.209378","-0.510838"
"0.345031","0.237355","-0.217468"
"0.21154099999999998","0.318918","-0.27696"
"0.15055","0.39494","-0.247964"
"0.397071","0.330642","0.21041300000000002"
"0.282954","0.43522799999999995","0.081599"
"0.12436199999999999","0.536709","-0.145777"
"0.067333","0.38516","-0.038814"
"0.077378","0.146574","0.16362000000000002"
"-0.08047699999999999","0.12254300000000001","0.132839"
"-0.195388","0.251996","0.256995"
"0.020339","0.4287","0.6548430000000001"
"-0.091754","0.6024579999999999","0.7844760000000001"
"-0.2493","0.786813","0.172986"
"-0.218296","0.654641","0.635571"
"0.030972000000000003","0.399648","0.653373"
"0.20650500000000002","0.026655","0.48562"
"0.363975","-0.087728","0.19023299999999999"
"0.22668200000000002","-0.328677","0.167811"
"0.15474000000000002","-0.315822","0.6425890000000001"
"0.184331","-0.529709","0.7001350000000001"
"0.249214","-0.567612","0.704496"
"0.182353","-0.551983","0.6188939999999999"
"0.047341","-0.527181","0.6176510000000001"
"-0.026938999999999998","-0.546431","0.583187"
"-0.062721","-0.50246","0.50903"
"-0.08511200000000001","-0.520634","0.29859600000000003"
"-0.164822","-0.484288","0.099575"
"-0.058749","0.434517","-0.352856"
"0.182179","2.045199","-0.91206"
"-0.072974","2.423844","-1.0290290000000002"
"-0.08404600000000001","-0.108047","-0.9883290000000001"
"0.115801","-0.505223","-0.25445500000000004"
"-0.21893200000000002","-0.11045999999999999","0.547091"
"0.294274","0.551258","0.8208479999999999"
"0.33462","1.13675","1.007524"
"0.36618","0.052447","0.750695"
"0.178208","-0.408024","0.6807840000000001"
"-0.14316199999999998","-0.45437700000000003","0.6966289999999999"
"0.168717","0.329511","-0.032182"
"0.497967","0.562053","0.29523699999999997"
"0.34412","-0.020993","0.6866260000000001"
"0.212993","-0.182752","0.579869"
"0.002783","-0.000579","0.155999"
"0.080948","-0.151585","0.36055"
"0.082726","-0.30378","0.307798"
"0.037219999999999996","-0.292313","0.218577"
"0.07473400000000001","-0.30139699999999997","0.113972"
"0.122841","-0.292794","0.111276"
"0.12754200000000002","-0.16561700000000001","0.230121"
"0.133043","0.010138","0.141836"
"0.132638","0.11366099999999998","0.084249"
"0.054866","0.257279","-0.06765399999999999"
"0.258662","0.351373","-0.813103"
"0.323849","0.343332","-0.599734"
"0.113793","0.326148","-0.187896"
"0.13283499999999998","0.23743000000000003","-0.020299"
"0.22966","0.216971","0.160865"
"0.11190699999999999","0.45511","-0.220646"
"0.005347","0.408451","-0.123697"
"0.009588","0.406864","-0.09916799999999999"
"0.01091","0.267525","0.14305299999999999"
"0.0153","0.24773299999999998","0.34191900000000003"
"0.023357","0.40508299999999997","0.5835319999999999"
"-0.192443","0.548718","0.659903"
"-0.18624300000000002","0.715542","0.23885100000000004"
"-0.193293","0.725112","0.276969"
"0.012633","0.545666","0.687261"
"0.110349","0.051465","0.137625"
"0.238975","0.002512","-0.078145"
"0.22093400000000002","-0.027873000000000002","0.295582"
"0.17974","-0.168009","0.602546"
"0.300089","-0.46078500000000006","0.68772"
"0.212056","-0.659382","0.647026"
"0.08745499999999999","-0.597515","0.64367"
"0.040825","-0.590333","0.647882"
"0.021046000000000002","-0.59519","0.585217"
"0.002418","-0.6288819999999999","0.457512"
"-0.031392","-0.594935","0.32545100000000005"
"-0.092657","-0.34752","0.12"
"-0.051457","0.220829","-0.11504400000000001"
"0.065425","0.7469939999999999","-0.39713699999999996"
"-0.023821000000000002","1.726503","-1.048499"
"-0.058563","0.158434","-1.25345"
"0.006168","-0.202868","-0.845882"
"-0.151124","-0.03342","0.48502700000000004"
"0.371371","0.8690690000000001","1.006208"
"0.376974","1.374055","1.370487"
"0.386619","-0.300715","0.612394"
"0.11165499999999999","-0.5188470000000001","0.712002"
"-0.218917","-0.283646","0.533949"
"0.117495","0.653887","-0.02975"
"0.5010020000000001","0.323667","0.536129"
"0.321655","-0.088216","0.715804"
"0.17504","-0.051373","0.286403"
"0.020759","0.13124","0.298946"
"0.060586","-0.089376","0.522746"
"-0.027517000000000003","-0.31883","0.334276"
"-0.009552","-0.235409","0.113578"
"0.05147","-0.211056","0.07285499999999999"
"0.265354","-0.15364","0.173852"
"0.279943","-0.049315","0.145335"
"0.2533","0.007573999999999999","0.10547899999999999"
"0.104026","0.062337000000000004","-0.014084000000000001"
"0.181614","0.157223","-0.4368"
"0.193935","0.175493","-0.363678"
"0.070788","0.22707399999999997","-0.206729"
"0.39660300000000004","0.076328","-0.053037"
"0.4976","0.132879","0.101133"
"0.323312","0.367241","0.047977"
"0.026659","0.40783200000000003","-0.21129299999999998"
"0.159602","0.349928","-0.11958699999999998"
"0.243207","0.281709","0.03955"
"0.039452","0.296076","0.081633"
"0.028584","0.317499","0.222534"
"-0.053226","0.32808000000000004","0.5206029999999999"
"-0.246658","0.59921","0.68204"
"-0.43836400000000003","0.6998","0.31698699999999996"
"-0.329727","0.5666439999999999","0.609712"
"-0.08987300000000001","0.405042","0.632727"
"0.047702999999999995","0.275592","0.491096"
"0.325853","0.028268","0.072344"
"0.220104","-0.122825","0.225858"
"0.150418","-0.12978","0.48589499999999997"
"0.20792199999999997","-0.48116899999999996","0.7405189999999999"
"0.266829","-0.621081","0.680994"
"0.255648","-0.620527","0.613347"
"0.011124","-0.553024","0.559281"
"0.029579","-0.51967","0.578785"
"0.047677","-0.549087","0.540924"
"0.004431","-0.48363500000000004","0.36535700000000004"
"-0.055888","-0.584869","0.10337"
"-0.074211","-0.5657939999999999","-0.073599"
"-0.074054","0.651944","-0.583429"
"-0.037112","2.404379","-0.529745"
"-0.195687","2.219985","-0.5192060000000001"
"0.013394","-0.323257","-0.861667"
"0.057075","-0.608923","-0.131678"
"-0.053882000000000006","-0.253324","0.17632799999999998"
"0.431612","0.683591","0.913093"
"0.303048","0.9020030000000001","0.8980290000000001"
"0.144278","0.212233","0.8565709999999999"
"0.036055000000000004","-0.364774","0.837153"
"-0.194598","-0.083457","-0.048261"
"0.21173000000000003","0.47834499999999996","-0.095339"
"0.5713689999999999","0.14919300000000002","0.714395"
"0.222998","-0.021758","0.396931"
"0.143705","0.06577100000000001","0.07611"
"0.027781999999999998","0.213273","0.42758999999999997"
"0.14338599999999999","-0.25601599999999997","0.36706"
"0.057948","-0.288538","0.286999"
"-0.020617","-0.27414099999999997","0.234475"
"0.076386","-0.282323","0.157828"
"0.069276","-0.289026","0.119274"
"0.242148","-0.172544","0.231535"
"0.048698000000000005","-0.039318","0.22719899999999998"
"-0.003686","-0.047928","0.134126"
"-0.005785","0.023702","-0.270484"
"0.311787","0.219531","-0.386793"
"0.333467","0.264803","-0.2745"
"0.283376","0.382594","-0.361594"
"0.476038","0.148348","-0.043177"
"0.43648100000000006","0.24191100000000001","0.100272"
"0.093792","0.582824","-0.19303299999999998"
"0.10830899999999999","0.41010699999999994","0.055722"
"0.097312","0.329807","0.229967"
"-0.246042","0.299331","0.178272"
"-0.34067800000000004","0.224242","0.37912399999999996"
"-0.319","0.259713","0.5841430000000001"
"-0.277769","0.8226110000000001","0.288848"
"-0.202348","0.870674","0.203369"
"-0.146171","0.784288","0.338456"
"0.181072","0.513478","0.6927770000000001"
"0.350354","0.065264","0.532316"
"0.46849399999999997","-0.040159","0.46673100000000006"
"0.139219","-0.36208","0.28487399999999996"
"0.053692","-0.41239499999999996","0.619793"
"0.06489600000000001","-0.419346","0.686602"
"0.229771","-0.529301","0.686988"
"0.161748","-0.576702","0.6050770000000001"
"0.122848","-0.5673819999999999","0.579703"
"-0.000469","-0.581828","0.569054"
"-0.037758","-0.587501","0.462714"
"-0.062689","-0.597507","0.264728"
"-0.099971","-0.567357","0.11741700000000001"
"-0.09826900000000001","-0.017882","-0.024122"
"0.044943000000000004","0.45465200000000006","-0.29689"
"0.079438","2.619048","-1.034257"
"-0.44513400000000003","0.615115","-1.118083"
"-0.378328","-0.226417","-0.949355"
"0.23749299999999998","-0.751132","0.18337"
"0.121153","-0.083643","0.615869"
"0.28428200000000003","0.078436","0.841621"
"0.44312799999999997","1.3771129999999998","1.003778"
"0.373409","0.680121","0.357986"
"0.266253","-0.403413","0.7617510000000001"
"-0.37167100000000003","-0.595349","0.492279"
"0.00047000000000000004","0.158917","-0.069772"
"0.289598","0.37736","0.2309"
"0.436357","0.130937","0.6860649999999999"
"0.098848","0.098475","0.363926"
"0.059576","0.077315","0.30708"
"-0.08266799999999999","-0.33015900000000004","0.403737"
"-0.03586","-0.327511","0.370153"
"0.014207","-0.282496","0.29111"
"0.100458","-0.1904","0.173879"
"0.115505","-0.21211999999999998","0.17535699999999999"
"0.115926","-0.21530100000000002","0.132218"
"0.163859","-0.06249299999999999","0.022954"
"0.163043","0.093222","-0.271665"
"0.20959499999999998","0.197943","-0.499672"
"0.24078400000000003","0.211563","-0.475968"
"0.288914","0.16939300000000002","-0.214833"
"0.28134699999999996","0.237913","-0.165911"
"0.308582","0.267462","-0.13131199999999998"
"-0.179751","0.470026","-0.38340100000000005"
"-0.18020899999999998","0.46964300000000003","-0.380017"
"0.040582","0.240486","-0.164575"
"0.127003","0.204693","0.10624600000000001"
"0.175317","0.236758","0.18248399999999998"
"0.5723199999999999","0.600448","0.572497"
"0.44123199999999996","0.908098","0.6715770000000001"
"-0.39711199999999997","0.8573850000000001","0.889541"
"-0.6031310000000001","0.7333","0.159189"
"-0.19638","0.48050299999999996","0.650044"
"-0.075153","0.20784299999999997","0.856692"
"0.194688","0.041246","0.40022800000000003"
"0.239","0.069504","0.023706"
"0.160557","-0.01865","0.097897"
"0.16555","-0.357464","0.584113"
"0.33215100000000003","-0.575284","0.632522"
"0.237053","-0.59358","0.6393939999999999"
"0.103208","-0.580544","0.625995"
"0.086","-0.5741390000000001","0.6463800000000001"
"0.025277","-0.6237699999999999","0.6141939999999999"
"-0.012754000000000001","-0.594022","0.514787"
"-0.125513","-0.6166050000000001","0.32295999999999997"
"-0.11960599999999999","-0.512648","0.042598000000000004"
"-0.046051","0.176932","-0.296346"
"0.227025","1.943846","-0.927165"
"0.139458","2.780165","-0.9785229999999999"
"-0.33362800000000004","-0.178585","-0.97616"
"0.09852000000000001","-1.126383","-0.15692799999999998"
"-0.114141","-0.7448779999999999","0.236368"
"0.42349899999999996","0.787553","1.072983"
"0.44464499999999996","1.5856379999999999","0.9708209999999999"
"0.306464","1.01381","0.784105"
"0.145887","-0.388329","1.003809"
"0.06500800000000001","0.269831","-0.133596"
"0.069728","0.259463","-0.151646"
"0.388178","-0.0725","0.719485"
"0.306242","0.055139","0.49792700000000006"
"0.26509299999999997","0.022871000000000002","0.44318500000000005"
"0.202988","-0.024628999999999998","0.523075"
"0.086423","-0.152126","0.437075"
"0.06371","-0.166526","0.393458"
"-0.049591","-0.290189","0.220401"
"-0.036956","-0.30600700000000003","0.071154"
"-0.04297","-0.311603","0.03536"
"0.153263","-0.338598","0.365964"
"0.155935","-0.280254","0.252717"
"0.037724","-0.006774","0.199373"
"0.11693699999999999","0.148044","-0.36290300000000003"
"0.399186","0.289508","-0.19356199999999998"
"0.432421","0.328805","-0.15980899999999998"
"0.225541","0.37396399999999996","-0.405312"
"0.440337","0.277392","0.029418"
"0.39392","0.460966","0.017079"
"0.12179100000000001","0.45921899999999993","-0.169871"
"0.07546","0.327221","0.062819"
"0.116158","0.29165599999999997","0.203448"
"-0.157471","0.449716","0.453578"
"-0.185815","0.63049","0.5859479999999999"
"-0.24944299999999997","0.733584","0.633992"
"-0.348211","0.735875","0.5048630000000001"
"-0.31708200000000003","0.698016","0.409568"
"-0.160527","0.602971","0.571181"
"0.195218","0.41317200000000004","0.378713"
"0.31759","0.28229","0.341671"
"0.093239","-0.038298","0.423457"
"0.023392","-0.47627600000000003","0.8083130000000001"
