"userAcceleration.x","userAcceleration.y","userAcceleration.z"
"0.443742","0.009748","0.16188699999999998"
"0.4292","0.012572","0.150478"
"0.22366999999999998","-0.029112","0.16709100000000002"
"0.165706","-0.047659","0.162384"
"0.094941","-0.045834","0.118"
"0.030786","-0.007012999999999999","0.005416"
"0.025052","-0.004726","-0.058772000000000005"
"0.014721000000000001","-0.017612","-0.175858"
"-0.000436","0.005243","-0.231467"
"0.004797999999999999","0.036031","-0.203961"
"0.001628","0.049844","0.004228"
"-0.034933","0.109572","0.105468"
"-0.05335499999999999","0.164191","0.146804"
"0.008754000000000001","0.252917","0.100591"
"0.051551","0.252367","0.12138800000000001"
"-0.009549","0.041766000000000005","0.249477"
"-0.111649","-0.10578499999999999","0.22334400000000001"
"-0.128165","-0.21585900000000002","0.152251"
"-0.097536","-0.191128","0.064568"
"-0.083995","-0.09692","0.00596"
"-0.12842","0.047402","-0.024616"
"-0.136019","0.07445299999999999","0.031697"
"-0.100204","0.15220899999999998","-0.032299"
"0.035754","0.20106500000000002","-0.052123"
"0.133233","0.114728","0.035515"
"0.134218","0.107524","0.111194"
"0.107374","0.063309","0.184078"
"0.072125","-0.03519","0.274729"
"0.009136","-0.128934","0.23134000000000002"
"-0.019644","-0.131385","0.168419"
"-0.037435","-0.119272","0.134053"
"-0.076461","-0.062697","0.075318"
"-0.069927","-6.6e-05","0.026022000000000003"
"-0.07085599999999999","-0.006593000000000001","0.012078"
"-0.051243","-0.020547","0.01312"
"-0.03147","-0.015284","0.027188"
"-0.007935","-0.001497","0.052440999999999995"
"-0.052886","0.013052000000000001","0.072238"
"-0.089472","-0.020733","0.08622200000000001"
"-0.15546500000000002","0.020919999999999998","0.104993"
"-0.144246","0.098588","0.091875"
"-0.129519","0.074397","0.014872"
"-0.143307","0.053045","-0.094944"
"-0.130855","0.007937","-0.191472"
"-0.056405","-0.03605","-0.23186700000000002"
"0.063417","-0.085285","-0.185152"
"0.110234","-0.058747","-0.037117000000000004"
"0.113204","0.043528","0.22938899999999998"
"0.107267","0.061532","0.28539200000000003"
"0.064389","0.064576","0.293114"
"-0.083764","0.048501999999999997","0.040063"
"-0.089058","0.020574000000000002","-0.060205999999999996"
"0.087019","-0.038961","-0.004726"
"0.102773","-0.047543","0.054751"
"0.12406700000000001","-0.058987","0.100799"
"0.141942","-0.018105","0.16399"
"0.142678","-0.004936","0.157573"
"0.136099","-0.00812","0.131389"
"0.169836","0.036086","0.030558999999999996"
"0.159368","0.062029999999999995","-0.009992000000000001"
"0.144148","0.099557","-0.029464999999999998"
"0.082332","0.088768","-0.023512"
"0.032353","0.071301","-0.028067"
"0.021039","0.045177999999999996","-0.032958"
"0.036284","0.029542000000000002","-0.023355"
"0.004314","0.001492","-0.05068"
"0.00257","-0.00487","-0.051744000000000005"
"0.022206","0.007835","-0.02642"
"0.033829000000000005","0.007717","-0.009863"
"0.053212999999999996","0.013803","0.008765"
"0.070466","0.019392","0.01733"
"0.07350599999999999","-0.0020870000000000003","0.021664"
"0.058851","0.004405","0.031479"
"0.055911","0.025291","0.046504000000000004"
"0.025486","0.003207","0.046748000000000005"
"0.015627000000000002","0.00309","0.044051"
"0.009261","-0.005877","0.040437"
"0.010279","-0.012726000000000001","0.031731999999999996"
"0.013347","0.0030329999999999997","0.025774000000000002"
"0.000534","0.01524","0.002175"
"-0.007442","-0.000732","-0.007853"
"-0.023429","0.001407","-0.026966000000000004"
"-0.035686","0.0038079999999999998","-0.026711000000000002"
"-0.017303","-0.005129","-0.021687"
"-0.05923099999999999","0.013541","-0.049253"
"-0.030817","-0.013518","-0.05820499999999999"
"-0.027739","-0.005991","-0.090726"
"-0.023071","0.019926","-0.132727"
"-0.0146","0.03928","-0.17131300000000002"
"0.000226","0.038727","-0.18848800000000002"
"0.010931","0.038886000000000004","-0.199625"
"0.046175","0.034291","-0.21735500000000002"
"0.15801300000000001","0.14824500000000002","-0.16289"
"0.144602","0.19022999999999998","-0.13889200000000002"
"0.108083","0.196685","-0.086161"
"0.011945","0.11638399999999999","-0.048327999999999996"
"-0.056138","0.071147","0.000536"
"-0.108528","0.048936","0.018785"
"-0.11885","0.019587","0.046216"
"-0.188969","-0.047777","0.065463"
"-0.224635","-0.088587","0.021865"
"-0.096675","-0.056965999999999996","0.065116"
"0.018068","0.09664","0.165377"
"0.142652","0.22349699999999997","0.131098"
"0.183125","0.22989400000000002","0.150513"
"0.086997","0.08843","0.127959"
"0.008272","0.048851","0.12015"
"-0.024455","-0.016755000000000003","0.12620599999999998"
"-0.018143","-0.036917","0.139511"
"-0.025213","-0.026982","0.130939"
"-0.032833","-0.053621","0.117405"
"-0.010863","-0.080419","0.091522"
"-0.013165000000000001","-0.112651","0.061603"
"-0.031243","-0.11543599999999998","0.046647"
"-0.030869999999999998","-0.11683099999999999","0.057879999999999994"
"-0.04363","-0.152317","0.042689"
"-0.062898","-0.21024099999999998","-0.021622"
"-0.07149","-0.20809299999999997","-0.058869000000000005"
"-0.031573000000000004","-0.134434","-0.149534"
"-0.033722","0.09738","-0.29845900000000003"
"-0.044728","0.127572","-0.331743"
"-0.108868","0.050961","-0.390054"
"-0.07142799999999999","-0.053292","-0.348421"
"0.059209000000000005","-0.041811","-0.153265"
"0.059079","0.095154","0.127821"
"0.09994","0.16911099999999998","0.427647"
"0.078375","0.022629","0.5822510000000001"
"-0.040062","-0.023593","0.29794699999999996"
"0.087315","-0.001834","0.009978"
"0.182053","-0.015577","0.00587"
"0.240294","-0.002018","0.08654099999999999"
"0.137439","0.002722","0.13333699999999998"
"0.038422000000000005","0.016643","0.224093"
"0.070046","0.034237000000000004","0.207686"
"0.11876300000000001","0.105603","0.15218900000000002"
"0.16068","0.15143800000000002","0.036432"
"0.189324","0.09302200000000001","-0.022376"
"0.104171","0.037047000000000004","-0.027568000000000002"
"0.090061","0.020624","-0.018983"
"0.07892","-0.025602","0.018391"
"0.074304","-0.040768","0.015612000000000001"
"0.081955","-0.051352999999999996","-0.009548000000000001"
"0.024968999999999998","-0.058898","0.00845"
"0.014721000000000001","-0.05661","0.009125"
"0.007587000000000001","-0.067751","-0.009332"
"0.015937","-0.061943","-0.079211"
"0.019881","-0.044273","-0.12139000000000001"
"0.048585","0.000571","-0.20752600000000002"
"0.083353","0.060775","-0.337359"
"0.081051","0.060976","-0.342914"
"-0.0020399999999999997","0.138402","-0.202511"
"-0.14722000000000002","0.25865900000000003","-0.06969199999999999"
"-0.303199","0.284117","-0.013478"
"-0.31365","0.155405","-0.014011000000000001"
"-0.21576399999999998","0.040875","-0.050573"
"-0.158506","0.083972","0.040764999999999996"
"-0.230219","0.255915","0.255517"
"-0.33566","0.376632","0.410761"
"-0.300286","0.293933","0.164849"
"-0.069186","0.190615","0.158903"
"0.11755299999999999","0.205269","0.259818"
"0.056680999999999995","0.17235899999999998","0.177343"
"-0.028404000000000002","-0.054934000000000004","0.235538"
"-0.076964","-0.11321600000000001","0.229446"
"-0.009928","-0.19531099999999998","0.240835"
"0.045197","-0.294672","0.24535500000000002"
"0.063303","-0.321425","0.260776"
"0.08976100000000001","-0.283364","0.256794"
"0.10104400000000001","-0.278099","0.238708"
"0.086788","-0.27708699999999997","0.174512"
"0.029498000000000003","-0.33028","0.10485499999999999"
"-0.047087000000000004","-0.3696","-0.003662"
"-0.066433","-0.35034","-0.102346"
"-0.08469700000000001","-0.262853","-0.21273000000000003"
"-0.15923900000000002","-0.14441400000000001","-0.32250999999999996"
"-0.331891","0.10489100000000001","-0.48523299999999997"
"-0.27481","0.624324","-0.607758"
"-0.296933","0.599206","-0.5292899999999999"
"-0.45964499999999997","0.404754","-0.389257"
"-0.6293300000000001","0.6203","-0.175598"
"-0.47920799999999997","0.8697389999999999","0.051321000000000006"
"-0.135134","0.543639","0.362168"
"0.35022800000000004","-0.736969","0.32164"
"0.241396","-0.83135","0.404552"
"0.208166","-0.350943","0.579831"
"0.290107","-0.013565","0.398556"
"0.23783","0.44517799999999996","0.018574"
"0.260321","0.399366","-0.044787"
"0.031459","-0.028033999999999996","0.32806399999999997"
"-0.122748","-0.1537","0.351495"
"-0.18625","-0.046507","0.052825"
"-0.07798200000000001","0.12451300000000001","-0.024355"
"-0.012707","0.110632","0.018972"
"0.087854","-0.09831000000000001","0.204178"
"0.114995","-0.140289","0.308797"
"0.06626599999999999","-0.07409400000000001","0.287041"
"-0.012014","0.001887","0.11856900000000001"
"0.013138","-0.084914","0.085379"
"0.03077","-0.09596299999999999","0.0539"
"0.055810000000000005","-0.13938399999999998","0.08337"
"0.011606","-0.10603800000000001","0.107752"
"0.023829","-0.077285","0.06759"
"-0.023014","-0.022597","0.045075"
"-0.015658000000000002","0.051639","-0.156143"
"-0.034232","0.036328","-0.363106"
"-0.069515","0.081884","-0.419774"
"-0.026036","0.13076400000000002","-0.377728"
"-0.075254","0.20682899999999999","-0.380875"
"-0.128379","0.226411","-0.40941700000000003"
"-0.177563","0.181773","-0.322702"
"-0.191474","0.146748","-0.344041"
"-0.092586","0.142782","-0.45452700000000007"
"0.055781","0.302958","-0.223322"
"-0.038396","0.5105609999999999","0.084107"
"-0.250608","0.50536","0.141585"
"-0.557243","0.157132","0.09022100000000001"
"-0.581106","0.132975","0.535313"
"-0.301885","0.26721500000000004","0.41794799999999993"
"0.004092","0.417192","0.184697"
"0.161897","0.553869","0.106503"
"-0.003141","0.357232","-0.078293"
"-0.173325","-0.057651999999999995","0.020640000000000002"
"-0.075552","-0.15912300000000001","0.25244"
"0.027344","-0.172494","0.386284"
"0.089912","-0.192942","0.393124"
"0.094943","-0.255472","0.320092"
"0.070582","-0.322268","0.276591"
"0.059416","-0.456399","0.25992600000000005"
"0.081568","-0.376643","0.285414"
"0.019586000000000003","-0.44676899999999997","0.19131700000000001"
"-0.023408","-0.539032","0.146696"
"-0.06855","-0.535821","0.034874"
"-0.023882","-0.511912","-0.122267"
"-0.028594","-0.412788","-0.230318"
"-0.235698","-0.098499","-0.455113"
"-0.33165900000000004","1.006477","-0.701212"
"-0.367404","1.314864","-0.526605"
"-0.5124609999999999","0.0007160000000000001","-0.9148940000000001"
"-0.30087600000000003","-0.8490059999999999","-0.658096"
"-0.203567","-0.499022","-0.07332899999999999"
"-0.07031699999999999","0.337594","0.32106599999999996"
"0.103743","1.440657","1.086916"
"0.384194","-0.13703800000000002","0.449524"
"0.148321","-0.513259","0.311302"
"-0.377445","-0.103717","-0.048804"
"-0.162794","0.42824399999999996","-0.439262"
"0.10788099999999999","0.745188","-0.29473699999999997"
"0.430029","0.151794","0.706364"
"0.148349","-0.008684","0.577184"
"-0.19522","0.002547","0.18547"
"-0.05928099999999999","-0.133305","0.09446399999999999"
"-0.069812","-0.12459300000000001","0.050429"
"-0.12553399999999998","-0.176709","0.08237799999999999"
"-0.080073","-0.184307","0.062141999999999996"
"-0.015302000000000001","-0.176574","0.009279"
"0.026744","-0.131873","0.027188"
"0.018402","-0.09667","-0.028693"
"-0.022775","-0.087823","-0.06713999999999999"
"0.010918","-0.092559","-0.13918699999999998"
"-0.030050999999999998","0.013202","-0.398805"
"-0.003154","0.109901","-0.590913"
"0.0010609999999999999","0.073325","-0.487122"
"0.092533","0.119493","-0.346353"
"0.205242","0.060971000000000004","-0.27361599999999997"
"0.081367","0.115324","-0.31911100000000003"
"-0.15565299999999999","0.283366","-0.427598"
"-0.028321","0.336876","-0.335588"
"0.187177","0.337735","0.025002"
"-0.13436900000000002","0.71259","0.243589"
"-0.645892","0.41113","-0.039189999999999996"
"-0.8877450000000001","0.224742","0.23320900000000003"
"-0.492008","0.495838","0.262756"
"-0.11488599999999999","0.610826","0.004769"
"-0.07796","0.571674","0.17968599999999998"
"0.0028239999999999997","0.363307","0.099006"
"0.020102000000000002","0.173561","0.091133"
"0.06363300000000001","0.021668","0.15576199999999998"
"-0.020225","-0.076346","0.417357"
"-0.086373","-0.22218200000000002","0.46088"
"-0.07708200000000001","-0.36177800000000004","0.386762"
"-0.028314999999999996","-0.47908999999999996","0.32354"
"0.005157","-0.46402899999999997","0.239385"
"-0.000583","-0.47132799999999997","0.242657"
"-0.021697","-0.5169600000000001","0.222599"
"-0.100995","-0.562228","0.25608000000000003"
"-0.10027","-0.560315","0.226527"
"-0.046350999999999996","-0.5213399999999999","0.032387"
"-0.10748800000000001","-0.5250640000000001","-0.07057000000000001"
"-0.235902","-0.479853","-0.25811100000000003"
"-0.20904099999999998","1.568136","-0.831782"
"-0.259748","2.161045","-0.677772"
"-0.363396","1.6705889999999999","-0.513821"
"-0.43572","-0.626682","-0.8689479999999999"
"-0.232514","-0.47536300000000004","-0.233041"
"-0.111354","-0.169299","-0.009186"
"0.08329299999999999","0.809944","0.839166"
"0.253324","0.16663499999999998","0.405443"
"0.136855","-0.443334","0.44347"
"-0.125454","-0.5022270000000001","0.768146"
"-0.266419","-0.41038","0.779036"
"-0.109734","0.695496","-0.580773"
"0.373648","0.21188800000000002","0.437042"
"0.199523","-0.160215","0.566171"
"-0.24811","0.05867000000000001","0.007843000000000001"
"-0.181567","-0.051373","0.112877"
"-0.090383","-0.32905500000000004","0.20639899999999997"
"-0.082817","-0.263409","0.131441"
"-0.011826","-0.20233800000000002","0.085095"
"0.01128","-0.188341","0.023243"
"0.02284","-0.13301300000000002","0.017869"
"0.060712","-0.024340999999999998","-0.035352999999999996"
"0.084717","-0.032964","-0.080648"
"-0.091727","0.030197","-0.126407"
"-0.067817","0.049056999999999996","-0.375847"
"-0.097317","0.070704","-0.49585799999999997"
"-0.046738999999999996","0.132747","-0.37699299999999997"
"-0.045749","0.22165","-0.374173"
"0.167721","0.293923","-0.300167"
"0.365779","0.088977","-0.21932600000000002"
"0.317621","0.037524","-0.26605100000000004"
"0.003602","0.282412","-0.404725"
"-0.197939","0.35715399999999997","-0.397332"
"-0.201796","0.2203","-0.26558899999999996"
"-0.141482","0.19541","-0.021808"
"-0.179135","0.406968","0.121261"
"-0.363464","0.183676","0.02249"
"-0.678708","0.40667600000000004","0.382706"
"-0.562895","0.5574140000000001","0.36601300000000003"
"-0.34547","0.615951","0.279333"
"-0.1215","0.643849","0.280928"
"-0.093222","0.586128","0.317004"
"-0.078472","0.371829","0.128215"
"0.086677","-0.05189","-0.06764099999999999"
"0.064636","-0.291505","0.20516700000000002"
"0.075012","-0.541547","0.37502800000000003"
"0.007087","-0.590978","0.383544"
"0.018163","-0.634827","0.236946"
"-0.018728","-0.617276","0.25953899999999996"
"-0.035879","-0.687713","0.248579"
"-0.050862","-0.768547","0.265308"
"-0.148292","-0.709259","0.238114"
"-0.211667","-0.645731","0.15516300000000002"
"-0.199874","-0.618045","0.07726799999999999"
"-0.183651","-0.167988","-0.30088000000000004"
"-0.14766300000000002","0.752814","-0.757779"
"-0.095032","1.585109","-0.928164"
"-0.310311","0.799343","-1.315143"
"-0.164287","-0.735384","-0.786933"
"-0.11034100000000001","-0.9624870000000001","-0.394023"
"0.116505","-0.028949000000000003","0.319567"
"-0.01937","1.103084","0.828875"
"-0.24402600000000002","1.535092","0.788197"
"-0.035505","-0.6963189999999999","0.554503"
"-0.370725","-0.708761","0.9978549999999999"
"-0.48945500000000003","-0.21477","0.068256"
"0.164742","0.9503940000000001","-0.292365"
"0.80138","0.283314","0.47422"
"0.250686","0.15407300000000002","0.30805"
"-0.05111","-0.067476","0.003109"
"-0.15901600000000002","-0.294903","0.076738"
"-0.26959","-0.371961","0.195212"
"-0.24284699999999998","-0.216604","0.11546600000000001"
"-0.128212","-0.19472799999999998","-0.026316000000000003"
"-0.020776","-0.198182","-0.072965"
"0.094108","-0.156572","-0.070475"
"0.070287","-0.125236","-0.160366"
"-0.11218199999999999","-0.007555","-0.262856"
"-0.0021100000000000003","0.026954000000000002","-0.524724"
"0.095756","0.061082000000000004","-0.6427109999999999"
"0.081759","0.150525","-0.541985"
"0.058761","0.344305","-0.51161"
"0.29331399999999996","0.365199","-0.27311399999999997"
"0.30947600000000003","0.27941","-0.19017799999999999"
"0.019621","0.319577","-0.272439"
"-0.277935","0.395322","-0.44431400000000004"
"-0.020222","0.364667","-0.26158000000000003"
"0.24952","0.338096","0.070353"
"-0.31535799999999997","0.3545","-0.003907"
"-0.569395","0.250327","0.15954200000000002"
"-0.397748","0.435079","0.328719"
"-0.288317","0.532933","0.35706"
"-0.05954400000000001","0.5406989999999999","0.155151"
"-0.040931","0.371386","0.27099"
"-0.005821","0.277632","0.14232899999999998"
"0.131838","0.023941","-0.261884"
"0.145137","0.072537","0.10937999999999999"
"0.060349","-0.195992","0.49524700000000005"
"0.126323","-0.447035","0.529101"
"0.155608","-0.643997","0.498834"
"0.038903","-0.660536","0.477587"
"-0.082078","-0.666474","0.315341"
"-0.078743","-0.614665","0.25242"
"-0.103683","-0.6043229999999999","0.232508"
"-0.12654400000000002","-0.645003","0.22484200000000001"
"-0.138706","-0.695878","0.12493900000000001"
"-0.18249500000000002","-0.640363","-0.013590000000000001"
"-0.244969","-0.564112","-0.108679"
"-0.10306199999999999","0.743977","-0.720932"
"-0.020637","1.8625150000000001","-0.867175"
"-0.620205","0.685377","-1.533142"
"-0.153634","-0.705451","-0.45265500000000003"
"-0.081241","0.357781","0.013169"
"0.201628","1.027612","0.638048"
"0.49254","1.094366","1.234779"
"0.22626","-0.45719099999999996","0.568377"
"-0.102212","-0.9457399999999999","0.7684850000000001"
"-0.5274810000000001","-0.746962","0.796126"
"-0.305184","0.461305","-0.486397"
"0.567713","1.0332059999999998","0.188815"
"0.671611","0.138164","0.550435"
"0.16955","-0.116791","0.29880300000000004"
"-0.111874","-0.12665","-0.134858"
"-0.18199300000000002","-0.37301999999999996","0.193146"
"-0.233945","-0.263877","0.032886"
"-0.102947","-0.13305799999999998","0.032802"
"-0.029257","-0.143263","0.038602"
"-0.00727","-0.211416","-0.085594"
"0.069255","-0.14721900000000002","-0.15318299999999999"
"0.16733199999999998","-0.071477","-0.303034"
"0.186119","0.001454","-0.358034"
"0.064058","0.090532","-0.374736"
"5.2000000000000004e-05","0.165545","-0.441201"
"0.0431","0.18698299999999998","-0.458186"
"0.19305999999999998","0.31809299999999996","-0.591526"
"0.319728","0.193709","-0.27882199999999996"
"0.337746","0.194982","-0.164707"
"0.015291999999999998","0.511054","-0.38715700000000003"
"-0.086764","0.47994","-0.256479"
"0.052936000000000004","0.38766300000000004","0.143654"
"-0.348593","0.4751","0.045501"
"-0.510953","0.24322600000000003","-0.005957"
"-0.45044799999999996","0.285059","0.196941"
"-0.207085","0.378702","0.244864"
"-0.11441","0.5855899999999999","0.249344"
"-0.015796","0.508031","0.085979"
"-0.036275999999999996","0.330935","0.22394"
"0.050504","0.156861","-0.095683"
"0.222842","-0.03193","-0.077714"
"0.15801099999999998","-0.080169","0.290551"
"0.078584","-0.315427","0.508233"
"0.073992","-0.5714640000000001","0.48493400000000003"
"0.067704","-0.61816","0.5149279999999999"
"-0.07084299999999999","-0.6021350000000001","0.373527"
"-0.05681699999999999","-0.566718","0.304846"
"-0.079805","-0.565397","0.333537"
"-0.103227","-0.638547","0.24029"
"-0.146559","-0.635323","0.158839"
"-0.181057","-0.656325","0.033397"
"-0.205512","-0.553072","-0.12729100000000002"
"-0.156685","0.016404","-0.284564"
"-0.136476","1.619988","-0.754305"
"-0.263527","2.013201","-0.9174100000000001"
"-0.666186","-0.289149","-1.6614849999999999"
"-0.216129","-0.608136","-0.559793"
"-0.08080599999999999","0.359904","0.0365"
"0.424274","1.434017","1.171003"
"0.574384","0.321255","0.698314"
"0.24549400000000002","-0.8377030000000001","0.502617"
"-0.149304","-0.918942","0.8649899999999999"
"-0.482596","-0.43527","0.5358930000000001"
"-0.018264","1.042131","-0.6367510000000001"
"0.684739","0.848915","0.30340900000000004"
"0.6141449999999999","0.156842","0.511692"
"0.047788","-0.16986199999999999","0.199781"
"-0.096038","-0.026116000000000004","-0.020859"
"-0.034531","-0.186052","0.120618"
"-0.12068","-0.157104","-0.044561"
"-0.119729","-0.22501500000000002","-0.09826900000000001"
"-0.128892","-0.307651","-0.063487"
"0.034503","-0.278574","0.090912"
"0.037584","-0.274802","0.049118"
"0.049477","-0.083727","-0.145492"
"0.10020599999999999","0.045852","-0.41798"
"0.096315","0.032492","-0.48322200000000004"
"0.109372","0.10857","-0.389499"
"0.065588","0.293005","-0.46192"
"0.22060300000000002","0.30607","-0.454901"
"0.246844","0.257472","-0.197649"
"0.007116","0.46948","-0.29382800000000003"
"-0.065748","0.48791899999999994","-0.458722"
"0.09210700000000001","0.434892","-0.356398"
"0.017669999999999998","0.30767","0.011795"
"-0.330171","0.452578","-0.010232"
"-0.311215","0.264629","0.031"
"-0.308398","0.288968","0.25553400000000004"
"-0.20772","0.5038229999999999","0.36704499999999995"
"-0.144525","0.573284","0.27069499999999996"
"-0.013397","0.49058999999999997","0.258786"
"0.016763999999999998","0.355541","0.167054"
"-0.017169999999999998","0.120183","-0.055919"
"0.169694","-0.066307","-0.23455399999999998"
"0.085837","-0.083539","0.417882"
"0.09361","-0.246704","0.5647"
"0.184271","-0.48498199999999997","0.48900600000000005"
"0.116408","-0.6266","0.49752299999999994"
"-0.005187","-0.603083","0.43245200000000006"
"-0.090895","-0.5435","0.357433"
"-0.100016","-0.5441729999999999","0.282002"
"-0.124155","-0.577475","0.262907"
"-0.14063699999999998","-0.604637","0.199725"
"-0.196774","-0.620499","0.080197"
"-0.21196700000000002","-0.5101859999999999","-0.08124400000000001"
"-0.24566","0.030867000000000002","-0.19432"
"-0.148317","1.604746","-0.695434"
"-0.216072","2.002825","-0.9659620000000001"
"-0.541671","-0.268167","-1.623143"
"-0.02561","-0.799118","-0.699782"
"0.11255899999999999","-0.464237","-0.050691"
"0.217637","0.070577","0.564659"
"0.28623000000000004","0.816118","1.1006479999999998"
"0.060563","0.8448459999999999","0.5657449999999999"
"0.167651","-0.49061800000000005","0.662062"
"-0.245299","-0.537902","0.876185"
"-0.5686869999999999","-0.23525100000000002","0.151999"
"0.5237930000000001","0.7115279999999999","-0.050384"
"0.6462720000000001","0.373236","0.140267"
"0.403667","-0.114576","0.558269"
"-0.142014","-0.21496700000000002","0.126107"
"-0.266943","-0.25716700000000003","0.060551999999999995"
"-0.162216","-0.228156","0.137345"
"-0.07356900000000001","-0.09434","0.036905"
"-0.07794","-0.091834","-0.002264"
"-0.033229","-0.135244","-0.167185"
"0.075084","-0.07915499999999999","-0.277949"
"0.154499","-0.06168099999999999","-0.331957"
"0.13983299999999999","-0.067798","-0.246333"
"0.11620599999999999","0.012721","-0.16023900000000002"
"-0.063997","0.12353199999999999","-0.312008"
"-0.047362","0.19941","-0.45545399999999997"
"0.032299","0.230225","-0.5334439999999999"
"0.221243","0.168768","-0.2431"
"0.11653800000000002","0.315303","-0.146653"
"-0.104553","0.366705","-0.142874"
"-0.148283","0.493476","-0.519209"
"0.063956","0.449776","-0.376807"
"-0.047802","0.30039299999999997","-0.137697"
"-0.26329400000000003","0.232961","-0.063471"
"-0.22289899999999999","0.269206","0.158805"
"-0.045836","0.564762","0.39166100000000004"
"0.0027329999999999998","0.45544399999999996","0.53094"
"-0.08443300000000001","0.35985300000000003","0.208958"
"-0.131798","0.387586","-0.108954"
"-0.066959","-0.044551","-0.276044"
"-0.012851","-0.075727","-0.118987"
"0.075013","-0.011562000000000001","0.348033"
"0.20955","-0.287095","0.498879"
"0.238304","-0.39285","0.43158900000000006"
"0.161563","-0.495755","0.445406"
"-0.037155","-0.529932","0.41600299999999996"
"-0.08026799999999999","-0.552312","0.39934200000000003"
"-0.082038","-0.592006","0.335636"
"-0.077566","-0.5589569999999999","0.18291"
"-0.175321","-0.7014819999999999","0.1921"
"-0.266439","-0.692434","0.02144"
"-0.19747","-0.425253","-0.161458"
"-0.139296","-0.09423","-0.359013"
"0.007377","1.710912","-0.8399549999999999"
"-0.305663","2.307455","-0.8305040000000001"
"-0.5978979999999999","-0.280854","-1.564919"
"-0.13171300000000002","-0.8985","-0.661671"
"-0.06961200000000001","0.022656","0.116217"
"0.5231020000000001","0.750699","1.247643"
"0.252159","0.640378","0.8784799999999999"
"-0.026519","-0.42960200000000004","0.47316899999999995"
"-0.083005","-0.676687","0.5947819999999999"
"-0.158992","0.131425","-0.034711"
"0.101688","0.800678","-0.22935300000000003"
"0.433963","0.675038","0.14169"
"0.210871","-0.14922","0.443454"
"0.095872","-0.104582","0.185222"
"0.040396","0.018788","-0.005345"
"-0.088233","-0.27072199999999996","0.003375"
"-0.181981","-0.27368600000000004","-0.07409400000000001"
"-0.193985","-0.252179","-0.091212"
"-0.064353","-0.295269","-0.013368000000000001"
"-0.0019850000000000002","-0.30105","-0.005607"
"0.071162","-0.16989300000000002","0.010409"
"0.036917","-0.082801","-0.07106799999999999"
"0.05152999999999999","0.070504","-0.352024"
"0.130097","0.136666","-0.59385"
"0.055399000000000004","0.18245999999999998","-0.362502"
"-0.081356","0.29994299999999996","-0.39453"
"0.13810899999999998","0.262125","-0.40792"
"0.291026","0.23778400000000002","-0.188659"
"0.095125","0.444381","-0.25191399999999997"
"-0.044489999999999995","0.512937","-0.40996800000000005"
"0.045842","0.445938","-0.348565"
"-0.193193","0.317006","-0.093127"
"-0.26006999999999997","0.221059","-0.023416"
"-0.309777","0.315338","0.189742"
"-0.072027","0.63826","0.46096000000000004"
"-0.09297000000000001","0.575964","0.372367"
"-0.217923","0.442642","0.27094"
"-0.10661","0.42710600000000004","0.028952999999999996"
"-0.11578599999999999","0.23195","-0.11294900000000001"
"-0.000607","-0.053986","-0.045478"
"0.065698","-0.00526","0.33802600000000005"
"0.07501000000000001","-0.042866","0.499827"
"0.20697","-0.48703500000000005","0.519622"
"0.003945000000000001","-0.578638","0.44040200000000007"
"-0.021474","-0.585901","0.430508"
"-0.049354","-0.582863","0.43679799999999996"
"-0.03913","-0.586411","0.33607"
"-0.002579","-0.572496","0.276424"
"-0.024196000000000002","-0.672243","0.26326900000000003"
"-0.188039","-0.669099","0.06194500000000001"
"-0.173822","-0.589232","-0.12676500000000002"
"-0.219441","-0.08731799999999999","-0.32671999999999995"
"-0.133707","1.477588","-0.8395100000000001"
"-0.41610699999999995","2.36403","-0.9842920000000001"
"-0.373386","-0.759374","-0.894756"
"-0.30946399999999996","-0.8300489999999999","-0.526756"
"-0.236443","-0.0053950000000000005","0.089919"
"0.367093","0.993448","1.1757799999999998"
"0.282523","0.829759","1.202144"
"0.179578","-0.6431","0.479483"
"-0.051148","-0.6548109999999999","0.75235"
"-0.20624800000000001","-0.498564","0.885468"
"0.15365299999999998","0.862397","-0.362998"
"0.505736","0.48388100000000006","0.194878"
"0.379304","0.010904","0.344358"
"-0.007925","-0.109777","0.343558"
"0.001544","-0.087822","0.07355"
"0.016915","-0.162991","0.14189000000000002"
"-0.15998800000000002","-0.323954","-0.046306"
"-0.116629","-0.20585","-0.049011"
"-0.080834","-0.197854","0.047109"
"-0.106454","-0.17991300000000002","0.04774"
"-0.011022","-0.061640999999999994","-0.12118"
"0.143012","0.014863","-0.214313"
"0.193201","0.090822","-0.535451"
"0.140507","0.036893","-0.503606"
"-0.05613200000000001","0.19956600000000002","-0.285396"
"-0.071143","0.295986","-0.378021"
"0.24644899999999997","0.259786","-0.372345"
"0.320211","0.25254099999999996","-0.151041"
"-0.0278","0.398177","-0.196229"
"-0.152653","0.426112","-0.334068"
"0.012339","0.42535100000000003","-0.493637"
"0.105375","0.232364","-0.150819"
"0.022099","0.223744","-0.07874600000000001"
"-0.062796","0.327324","0.161584"
"-0.101149","0.644808","0.313218"
"-0.179595","0.637123","0.42839700000000003"
"-0.17563900000000002","0.432594","0.452589"
"-0.13079100000000002","0.364311","0.239186"
"-0.125162","0.30528","0.047089"
"-0.016597","0.025115000000000002","-0.143017"
"0.051552999999999995","0.005556","0.029133999999999997"
"0.03756","0.048279","0.22851300000000002"
"0.119727","-0.31763800000000003","0.590184"
"0.200999","-0.565399","0.530812"
"0.080466","-0.635196","0.486167"
"-0.031514999999999994","-0.633601","0.4534"
"-0.034365","-0.61587","0.433834"
"-0.052686000000000004","-0.590098","0.350323"
"-0.195188","-0.6100770000000001","0.27916199999999997"
"-0.27934899999999996","-0.616259","0.160584"
"-0.274704","-0.562638","-0.036016"
"-0.273968","-0.41790600000000006","-0.19906300000000002"
"-0.254816","-0.136276","-0.26853499999999997"
"-0.10975399999999999","2.427091","-0.8980520000000001"
"-0.479258","1.459322","-1.0866129999999998"
"-0.258367","-0.6392399999999999","-1.332589"
"-0.036733","-0.629307","-0.39955799999999997"
"0.05848099999999999","0.29841799999999996","0.4526"
"0.27872199999999997","0.700821","1.019764"
"0.190921","-0.384299","0.429881"
"0.13267","-0.588186","0.247155"
"-0.097801","-0.298752","0.692425"
"0.020952000000000002","0.473629","0.026417000000000003"
"0.17762","0.787758","-0.06032100000000001"
"0.163364","-0.04798","0.41286300000000004"
"0.045673000000000005","-0.244842","0.369703"
"-0.031738","-0.145572","0.193248"
"0.027239999999999997","-0.0056159999999999995","0.080273"
"0.077689","-0.133399","0.05839"
"0.001491","-0.15626700000000002","-0.025272"
"0.021109","-0.31698699999999996","-0.13051300000000002"
"0.051471","-0.290634","-0.025259"
"0.026044","-0.281586","-0.030663"
"-0.062775","-0.186049","-0.034511"
"-0.06579","-0.071596","-0.11040499999999999"
"0.028368","0.00244","-0.37696399999999997"
"-0.08052000000000001","0.086091","-0.42355600000000004"
"-0.118318","0.24990500000000002","-0.261567"
"-0.120674","0.281544","-0.268119"
"0.10488399999999999","0.34113899999999997","-0.296623"
"-0.123796","0.38100300000000004","-0.297637"
"-0.336674","0.403827","-0.589368"
"-0.22270399999999999","0.317358","-0.609925"
"-0.080725","0.26861799999999997","-0.384398"
"-0.197799","0.234827","-0.18567899999999998"
"-0.133211","0.685078","0.245113"
"0.146592","0.921524","0.9053209999999999"
"0.018095","0.611989","0.602479"
"-0.126887","0.7001609999999999","0.218192"
"-0.102967","0.693871","0.098014"
"-0.171762","-0.005971","-0.24743600000000002"
"-0.223052","-0.090938","0.132666"
"-0.10713199999999999","-0.014675","0.281933"
"0.146905","-0.186192","0.545016"
"0.188585","-0.415691","0.65262"
"0.154798","-0.587507","0.616157"
"0.051703","-0.668244","0.48406000000000005"
"0.061585","-0.683764","0.440594"
"-0.025820999999999997","-0.68298","0.37947600000000004"
"-0.07774099999999999","-0.7038310000000001","0.32095100000000004"
"-0.143984","-0.75407","0.218401"
"-0.184223","-0.713557","0.038693"
"-0.128322","-0.674158","-0.17393499999999998"
"-0.119407","-0.491041","-0.283516"
"-0.102486","1.8751330000000002","-1.045157"
"-0.537417","1.8498459999999999","-1.073424"
"-0.46274","-0.242558","-1.067317"
"-0.5266689999999999","-0.20961300000000002","0.032174"
"-0.41704399999999997","0.19660899999999998","0.44416000000000005"
"0.086537","0.791667","0.994366"
"-0.084141","0.48775100000000005","0.469905"
"0.066872","-0.418592","0.19076700000000002"
"0.275079","-0.11268299999999999","0.47592399999999996"
"0.42984700000000003","0.357964","0.221374"
"0.44505","0.554127","0.187686"
"0.197016","0.11046800000000001","0.433663"
"-0.025532","0.042408999999999995","0.07191499999999999"
"-0.126437","0.05595","-0.036567"
"-0.205868","-0.191743","0.138762"
"-0.153","-0.37729","0.152113"
"-0.063135","-0.31821900000000003","0.179964"
"-0.025958","-0.293759","-0.023916999999999997"
"0.054792999999999994","-0.22489099999999998","-0.07626799999999999"
"0.1741","-0.158524","-0.043475"
"0.135798","-0.16309","-0.011377"
"0.019847","-0.214542","0.117499"
"-0.121395","-0.07989","0.035006"
"-0.17028800000000002","0.125552","-0.304166"
"-0.019354","0.299502","-0.932268"
"0.077158","0.38403899999999996","-0.298168"
"-0.036325","0.36807399999999996","-0.322934"
"0.042816","0.377831","-0.22755"
"0.11451300000000002","0.4403","-0.18570899999999999"
"0.030705","0.521174","-0.262492"
"0.15967","0.41975500000000004","-0.500029"
"0.145026","0.44063199999999997","-0.265658"
"-0.0009339999999999999","0.187912","-0.209556"
"-0.055142","0.202336","-0.12386300000000001"
"0.015962999999999998","0.33686","0.299673"
"0.03179","0.581344","0.554143"
"-0.07588099999999999","0.605788","0.696527"
"-0.189469","0.59735","0.30504000000000003"
"-0.24562199999999998","0.423522","0.266018"
"-0.178751","0.272534","0.258594"
"-0.059611000000000004","-0.137999","-0.172874"
"-0.043458","0.02034","0.355553"
"0.09339299999999999","-0.173985","0.55083"
"0.21335500000000002","-0.36888000000000004","0.542445"
"0.192375","-0.581152","0.570427"
"-0.032464","-0.658882","0.456236"
"-0.06214600000000001","-0.6843779999999999","0.45332"
"0.0037719999999999997","-0.659054","0.41307"
"-0.117079","-0.6121310000000001","0.286002"
"-0.149448","-0.678665","0.207887"
"-0.252162","-0.71925","0.021851"
"-0.200222","-0.323044","-0.25603400000000004"
"-0.149318","0.141171","-0.5892"
"0.045342","2.029619","-0.8274"
"-0.645966","0.642285","-1.244945"
"-0.536357","-0.316168","-0.987258"
"-0.268521","-0.7289680000000001","-0.462104"
"-0.019568000000000002","0.279767","0.43111800000000006"
"0.239958","0.41165100000000004","0.676534"
"0.126699","0.19057000000000002","0.543311"
"0.12119500000000001","-0.36907399999999996","0.352946"
"0.222158","-0.31080399999999997","0.600789"
"0.060997","0.151345","0.26918600000000004"
"0.24864499999999998","0.629621","0.044419"
"0.254448","0.272901","0.406903"
"0.233384","0.258155","0.365623"
"0.074437","0.009473","0.012654"
"-0.030989","-0.152281","0.10091"
"0.095337","-0.20812600000000003","0.230317"
"-0.036213999999999996","-0.186637","0.033241"
"-0.086866","-0.194602","0.009909999999999999"
"-0.026835","-0.29291","-0.088723"
"-0.017996","-0.276625","-0.0699"
"-0.009728","-0.32192600000000005","0.034791"
"-0.013472999999999999","-0.270723","0.021463"
"-0.07741","-0.100506","0.024391"
"-0.070186","0.114436","-0.490383"
"0.001038","0.207433","-0.62367"
"0.070921","0.273789","-0.572579"
"0.113824","0.338217","-0.444521"
"0.28587199999999996","0.367608","-0.302626"
"0.19509","0.37656","-0.21319200000000002"
"-0.058688","0.467375","-0.551135"
"0.12299500000000001","0.374898","-0.353461"
"0.057942999999999995","0.389115","-0.13664"
"-0.16905499999999998","0.259203","-0.011758"
"-0.12441400000000001","0.285552","0.24754099999999998"
"-0.053599","0.46333199999999997","0.525231"
"-0.127029","0.491771","0.450737"
"-0.21118299999999998","0.596474","0.251279"
"-0.251206","0.595259","0.23328000000000002"
"-0.116995","0.30564","-0.048533"
"0.09210399999999999","0.0065450000000000005","-0.176535"
"0.103424","0.031858","0.013701"
"0.073911","-0.072804","0.43631000000000003"
"0.138094","-0.345966","0.532931"
"0.146456","-0.496749","0.5617770000000001"
"0.058126","-0.640712","0.521931"
"-0.047102","-0.7308720000000001","0.499146"
"-0.054196","-0.728103","0.40930300000000003"
"-0.083981","-0.713364","0.367606"
"-0.167482","-0.681014","0.226611"
"-0.250335","-0.720187","0.06805"
"-0.267916","-0.678134","-0.083862"
"-0.074251","0.563124","-0.730775"
"0.021181000000000002","2.717521","-0.957227"
"-0.43835799999999997","2.206904","-0.954151"
"-0.564714","-0.293864","-1.50385"
"-0.196272","-0.6391319999999999","-0.050210000000000005"
"-0.31185799999999997","-0.04108","0.33978200000000003"
"0.26011300000000004","0.973504","0.955879"
"0.142328","0.178334","0.764415"
"0.130704","-0.360219","0.509995"
"-0.063864","-0.22596999999999998","0.5781569999999999"
"0.119828","0.55985","0.069023"
"0.305502","0.772408","-0.030077999999999997"
"0.09157799999999999","0.064707","0.39097800000000005"
"0.043239","-0.045302999999999996","0.008812"
"0.140567","-0.006556","0.19136199999999998"
"0.212587","-0.159728","0.277061"
"0.003453","-0.323092","0.110793"
"-0.20968299999999998","-0.42853100000000005","0.034997"
"-0.277496","-0.516912","0.011954000000000001"
"-0.18053","-0.42026499999999994","-0.057103999999999995"
"-0.036557","-0.236413","0.022179"
"0.12823099999999998","-0.11024500000000001","0.193206"
"0.093551","-0.052687","0.179929"
"-0.101614","0.204001","-0.09349400000000001"
"0.031941000000000004","0.39463200000000004","-0.73619"
"0.162462","0.45891000000000004","-1.0056379999999998"
"0.044832","0.39574899999999996","-0.317889"
"0.032010000000000004","0.44488199999999994","-0.223929"
"0.07442599999999999","0.41033000000000003","-0.302612"
"0.017325999999999998","0.5242180000000001","-0.169426"
"-0.18343199999999998","0.41179","-0.480637"
"-0.084836","0.47803100000000004","-0.40671799999999997"
"0.070079","0.11724200000000001","-0.150649"
"-0.019259000000000002","0.17316600000000001","-0.087341"
"0.099199","0.173218","0.141989"
"0.325812","0.609635","0.37945300000000004"
"-0.045897","0.6498010000000001","0.474185"
"-0.276918","0.662099","0.26462800000000003"
"-0.288173","0.582947","0.396079"
"-0.140924","0.307381","0.38548499999999997"
"0.07694","-0.120624","-0.3918"
"0.149161","-0.152636","-0.197984"
"0.084726","0.11673800000000001","0.350637"
"0.05506799999999999","-0.391844","0.5296350000000001"
"0.09525299999999999","-0.563431","0.556143"
"0.075137","-0.681864","0.538987"
"-0.052258000000000006","-0.731739","0.4844"
"-0.018966999999999998","-0.727354","0.48376899999999995"
"-0.10498099999999999","-0.712559","0.44658000000000003"
"-0.167914","-0.669263","0.381164"
"-0.186389","-0.667984","0.309029"
"-0.29389","-0.640252","0.115753"
"-0.213311","0.005535","-0.18893800000000002"
"-0.043104","0.559118","-0.61335"
"-0.003164","2.702355","-1.3772280000000001"
"-0.526319","-0.138051","-1.590116"
"-0.187526","-0.669542","-0.999495"
"-0.145607","-0.265367","0.057391"
"0.46143599999999996","0.634107","1.282699"
"0.44165699999999997","0.897508","0.9124530000000001"
"0.094319","0.024725","0.725966"
"-0.027913999999999998","-0.41804399999999997","0.763526"
"-0.073409","-0.348962","0.509594"
"0.23957399999999998","0.46576899999999993","0.002736"
"0.354657","0.069082","0.6777989999999999"
"0.14956","-0.14611300000000002","0.534302"
"-0.11934700000000001","-0.136378","-0.16021"
"-0.021852","-0.007913","0.298412"
"0.06729600000000001","-0.24230900000000002","0.068441"
"-0.101698","-0.301177","-0.016135"
"-0.18495","-0.39518000000000003","-0.129626"
"-0.109952","-0.384251","-0.15187799999999999"
"-0.006166","-0.275039","-0.198045"
"0.21522199999999997","-0.13128900000000002","-0.072483"
"0.212887","-0.172166","0.18774200000000002"
"0.055134","-0.18246199999999999","0.20127899999999999"
"-0.146176","0.189827","-0.048369999999999996"
"0.034997","0.451582","-0.891323"
"0.361295","0.47706800000000005","-0.45633500000000005"
"0.124524","0.325202","-0.3109"
"0.062480999999999995","0.36001700000000003","-0.20914499999999997"
"0.27171999999999996","0.399987","-0.168962"
"0.28680300000000003","0.510105","-0.28352"
"0.178997","0.651367","-0.210335"
"0.037009","0.385352","-0.050911"
"-0.12704000000000001","0.181053","-0.038403"
"-0.253182","0.049468","-0.07739700000000001"
"-0.186628","0.09085700000000001","0.19222999999999998"
"-0.040387","0.345107","0.34853"
"-0.03681","0.557099","0.357617"
"-0.381871","0.5053270000000001","0.087372"
"-0.18976400000000002","0.32213800000000004","0.32240100000000005"
"-0.098161","0.229125","0.08553999999999999"
"0.140717","0.013662","-0.083718"
"0.16697599999999999","-0.066609","0.334286"
"0.046135","-0.094445","0.47343999999999997"
"-0.035595999999999996","-0.314833","0.54484"
"0.077319","-0.606482","0.45236899999999997"
"0.042386","-0.594567","0.466292"
"0.063","-0.612496","0.45722299999999994"
"-0.042185","-0.595942","0.412538"
"-0.09640599999999999","-0.552198","0.380504"
"-0.169261","-0.55375","0.30592199999999997"
"-0.27771399999999996","-0.495886","-0.058937"
"-0.225552","-0.363471","-0.387176"
"-0.275989","0.38704099999999997","-0.845619"
"-0.21563000000000002","1.312724","-0.894992"
"-0.39463200000000004","0.7516930000000001","-0.995223"
"-0.390926","-0.092109","-0.6754220000000001"
"-0.38312199999999996","-0.134537","-8e-05"
"-0.125245","0.5275","0.339238"
"0.290339","1.082594","0.6364270000000001"
"0.303919","0.547246","0.731129"
"0.12980999999999998","-0.6248630000000001","0.7965220000000001"
"-0.06807300000000001","-0.501872","0.681984"
"0.21697800000000003","0.35265599999999997","0.06278500000000001"
"0.44789399999999996","0.5094489999999999","0.110634"
"0.198792","-0.112381","0.46916800000000003"
"-0.000536","-0.27521","0.08067200000000001"
"-0.006183","-0.12106900000000001","-0.048277"
"-0.013749","-0.118506","0.07259199999999999"
"0.086748","-0.19906500000000002","0.13838599999999998"
"-0.240238","-0.37969400000000003","-0.017319"
"-0.210325","-0.387513","-0.067897"
"-0.11015599999999999","-0.34516199999999997","-0.154292"
"0.124642","-0.20018","-0.027444"
"0.14491700000000002","-0.148528","0.099725"
"0.089495","-0.16531600000000002","0.209695"
"-0.195981","0.066147","-0.069494"
"-0.006670999999999999","0.293771","-0.317096"
"0.165166","0.375433","-0.601174"
"0.11725999999999999","0.425455","-0.49572700000000003"
"0.052088","0.35133200000000003","-0.36291599999999996"
"0.20307999999999998","0.290311","-0.234575"
"0.26425","0.448708","-0.23335999999999998"
"0.169518","0.559556","-0.380134"
"0.039070999999999995","0.300209","-0.078611"
"-0.044843","0.20178","-0.059002"
"-0.09790700000000001","0.215527","0.057214"
"0.009316","0.50759","0.341939"
"0.015975","0.600317","0.330189"
"-0.289649","0.670963","0.47521899999999995"
"-0.314077","0.513108","0.229136"
"-0.22146999999999997","0.44121000000000005","0.31100500000000003"
"0.077654","0.24223499999999998","0.147565"
"0.197425","-0.12036500000000001","-0.009269"
"0.061861","-0.18796600000000002","0.414882"
"0.007141","-0.215892","0.56292"
"0.046060000000000004","-0.522545","0.418972"
"0.060629999999999996","-0.6747310000000001","0.502463"
"0.094735","-0.666031","0.506419"
"-0.004686999999999999","-0.634126","0.446981"
"-0.037064","-0.590186","0.398394"
"-0.072486","-0.577015","0.381619"
"-0.177707","-0.5418029999999999","0.241875"
"-0.220219","-0.55374","0.05089"
"-0.218255","-0.371596","-0.166357"
"-0.194904","0.330281","-0.6917989999999999"
"-0.11996099999999998","1.6723139999999999","-1.016608"
"-0.174468","1.5827149999999999","-0.9708600000000001"
"-0.283952","-0.389864","-0.539572"
"-0.264585","-0.34931999999999996","-0.185228"
"-0.270949","0.41970100000000005","0.23623000000000002"
"0.279114","1.029639","0.609424"
"0.30556","0.65759","0.6558350000000001"
"0.069283","-0.622496","0.8949020000000001"
"-0.188373","-0.643249","0.901489"
"0.058823","0.11501199999999999","-0.11777699999999999"
"0.726549","0.8339700000000001","0.204129"
"0.552862","0.049247000000000006","0.816175"
"0.091908","-0.157839","0.37602800000000003"
"-0.12103900000000001","-0.063166","-0.24402"
"-0.047189","0.0034049999999999996","0.108971"
"0.097111","-0.214056","0.11013800000000001"
"0.09779299999999999","-0.24305500000000002","0.10956500000000001"
"0.021041999999999998","-0.291725","0.032583999999999995"
"-0.009488","-0.283491","-0.06360299999999999"
"0.034274","-0.28219","-0.106717"
"0.044465","-0.24763200000000002","-0.126065"
"0.03556","-0.117783","0.178453"
"-0.079032","0.09968400000000001","0.12133599999999999"
"-0.098242","0.265323","-0.306139"
"0.023722","0.357675","-0.884309"
"0.128529","0.364496","-0.311839"
"0.031629000000000004","0.382298","-0.37490999999999997"
"0.238085","0.317623","-0.302755"
"0.18091600000000002","0.47934899999999997","-0.16434100000000001"
"0.186665","0.5963729999999999","-0.361985"
"0.12972","0.523155","-0.342456"
"0.138201","0.15295","-0.06994199999999999"
"0.034312","0.112509","-0.001158"
"0.015046","0.183127","-0.023614"
"-0.041407","0.165853","0.157617"
"0.043167000000000004","0.615133","0.46882799999999997"
"-0.12158","0.6579149999999999","0.472609"
"-0.33556199999999997","0.571769","0.258436"
"-0.180395","0.344891","0.36447199999999996"
"0.004717","0.239103","0.161045"
"0.051562000000000004","0.171627","0.079229"
"0.10374000000000001","-0.03188","0.068457"
"0.011317","-0.020626","0.432673"
"0.025537999999999998","-0.056287000000000004","0.551977"
"-0.024151","-0.656279","0.540081"
"0.037218","-0.74642","0.5391100000000001"
"0.057289","-0.713684","0.5407489999999999"
"0.031148000000000002","-0.550848","0.463334"
"-0.045917","-0.556327","0.452946"
"-0.088145","-0.562293","0.40232399999999996"
"-0.16350699999999999","-0.493381","0.24235700000000002"
"-0.22717600000000002","-0.405953","-0.072298"
"-0.284145","-0.183292","-0.47993900000000006"
"-0.237798","0.64867","-0.90789"
"-0.06754099999999999","1.156827","-0.83285"
"-0.200482","0.579838","-0.764796"
"-0.13376","-0.035861000000000004","-0.6321899999999999"
"-0.146955","-0.265877","-0.11870399999999999"
"-0.25412199999999996","-0.065996","0.08975599999999999"
"0.157778","0.5818770000000001","0.317845"
"0.178802","0.58129","0.8263440000000001"
"-0.154152","-0.21297","1.043096"
"-0.388615","-0.389337","0.6604899999999999"
"-0.041484","0.167526","-0.073645"
"0.5188010000000001","0.503146","-0.021922999999999998"
"0.384838","0.11626099999999999","0.640069"
"0.193063","-0.21993000000000001","0.301071"
"0.11381199999999998","-0.121169","0.047008"
"0.006609","-0.074235","0.018934"
"-0.041357","-0.18917","0.12468800000000001"
"-0.065946","-0.18059","0.15858"
"0.0057","-0.204347","0.19004100000000002"
"-0.1047","-0.371674","-0.042485"
"-0.024971","-0.28413","-0.11900799999999999"
"0.14019","-0.128275","-0.080451"
"0.13852799999999998","-0.200311","0.086721"
"0.105608","-0.15549200000000002","0.17777300000000001"
"-0.12071300000000001","0.111498","0.055358000000000004"
"-0.06486900000000001","0.36287800000000003","-0.265813"
"0.175781","0.45556499999999994","-0.740007"
"0.112483","0.365745","-0.247765"
"0.000383","0.259654","-0.143965"
"0.007248","0.325049","-0.15569000000000002"
"0.029989","0.391833","-0.196121"
"0.049217000000000004","0.342868","-0.43719300000000005"
"0.062606","0.31041599999999997","-0.381186"
"0.131194","0.172218","-0.13028800000000001"
"0.187264","0.352105","0.07295499999999999"
"0.14458900000000002","0.36202","0.20854499999999998"
"-0.290018","0.5461050000000001","0.248658"
"-0.289694","0.352749","0.409077"
"-0.18499000000000002","0.326666","0.299476"
"-0.192778","0.47205","0.166916"
"-0.09565900000000001","0.47537299999999993","-0.0017219999999999998"
"0.073812","0.36737600000000004","0.041056999999999996"
"0.082258","0.166452","0.039723"
"0.043305","0.08629099999999999","0.335549"
"0.060888","-0.06301","0.551309"
"0.037959","-0.21284899999999998","0.5889340000000001"
"-0.041369","-0.570669","0.519178"
"0.043004","-0.712852","0.510428"
"0.088225","-0.64808","0.43413100000000004"
"0.039898","-0.6224270000000001","0.398012"
"-0.006156","-0.60929","0.413022"
"-0.087017","-0.645647","0.35718099999999997"
"-0.129733","-0.622204","0.198988"
"-0.180081","-0.567479","-0.026114"
"-0.233375","-0.330424","-0.19234400000000001"
"-0.150117","0.48506099999999996","-0.649977"
"-0.07593","1.861202","-0.9092709999999999"
"-0.287458","0.876127","-0.9586"
"-0.105235","-0.27620700000000004","-0.944269"
"-0.067788","-0.235238","-0.223706"
"-0.043302","0.6604300000000001","0.311172"
"0.182095","0.989116","0.9970190000000001"
"0.01126","-0.09274099999999999","0.9801040000000001"
"-0.521667","-0.6622640000000001","0.779995"
"-0.20960700000000002","-0.082013","0.065211"
"0.11046099999999999","0.661445","-0.292651"
"0.5396770000000001","0.23093899999999998","0.682855"
"0.313285","-0.167122","0.595751"
"0.063277","0.007743000000000001","0.003563"
"-0.037229000000000005","-0.038782","0.147983"
"-0.04136","-0.221865","0.183597"
"-0.177829","-0.152398","0.145622"
"-0.035036000000000005","-0.21939899999999998","0.16672599999999999"
"-0.05759500000000001","-0.329378","0.016508000000000002"
"0.031633999999999995","-0.292552","0.002777"
"0.139215","-0.27844800000000003","0.059579999999999994"
"0.119531","-0.215403","0.222861"
"0.110974","-0.046428","0.180141"
"0.070852","0.282942","0.24483000000000002"
"0.07367","0.33146","-0.741375"
"0.27121","0.281341","-0.841648"
"0.126152","0.423358","-0.406548"
"0.11585","0.358815","-0.380808"
"0.25652800000000003","0.354022","-0.214912"
"0.140718","0.542321","-0.299219"
"0.029006999999999998","0.66091","-0.223379"
"-0.006515000000000001","0.528087","-0.126146"
"-0.067062","0.010401","-0.069053"
"-0.040119","-0.052683","-0.041413"
"-0.07107100000000001","0.09894700000000001","-0.063037"
"0.010052","0.232909","0.163261"
"-0.125397","0.683528","0.308761"
"-0.298548","0.664992","0.319494"
"-0.45936800000000005","0.6843670000000001","0.211245"
"-0.228363","0.43201999999999996","0.344476"
"-0.214023","0.43627200000000005","0.368731"
"0.12010499999999999","-0.040092","0.405387"
"0.304655","-0.236386","0.510404"
"0.26711799999999997","-0.414657","0.48612"
"0.121477","-0.497133","0.490857"
"-0.029774000000000002","-0.645849","0.31238499999999997"
"-0.023017","-0.636502","0.452446"
"0.071364","-0.6536770000000001","0.500165"
"-0.005961","-0.646154","0.422885"
"-0.07774500000000001","-0.633622","0.338926"
"-0.049931","-0.600669","0.258393"
"-0.08630499999999999","-0.698207","0.069125"
"-0.16463","-0.535356","-0.17289200000000002"
"-0.13489400000000001","0.16304100000000002","-0.516834"
"-0.071476","1.598027","-1.099792"
"-0.41653500000000004","1.4587370000000002","-0.902032"
"-0.745199","-0.390773","-0.33481500000000003"
"-0.629699","-0.315709","-0.42564399999999997"
"-0.120091","0.662961","-0.186386"
"0.421626","1.336908","0.440187"
"0.270394","0.015241999999999999","0.8481549999999999"
"0.059992","-1.029334","1.130207"
"0.062609","-0.460005","0.6295229999999999"
"0.216061","0.919832","-0.41469799999999996"
"0.75766","0.906057","0.772638"
"0.54685","0.223466","0.482234"
"0.176584","-0.11010199999999999","0.063331"
"-0.137711","-0.15320699999999998","0.05871900000000001"
"-0.310783","-0.280877","0.132454"
"-0.110248","-0.29722","-0.099131"
"0.110944","-0.29704","0.261992"
"0.092597","-0.29326199999999997","0.101102"
"0.060133000000000006","-0.24937600000000001","0.012691"
"0.029785000000000002","-0.190229","0.037852"
"-0.04553","-0.159005","0.089226"
"-0.04407","-0.006228","-0.007381"
"-0.057811","0.119796","0.035571"
"0.01892","0.326594","-0.488649"
"0.162369","0.356811","-0.970899"
"0.13868","0.42754899999999996","-0.252685"
"0.10533","0.258883","-0.19758"
"0.156133","0.30949699999999997","-0.19866099999999998"
"-0.019881","0.520608","-0.199404"
"-0.05267","0.463451","-0.425025"
"0.116057","0.337619","-0.199423"
"0.097871","0.133456","-0.089752"
"0.102623","0.159615","-0.006945000000000001"
"0.064841","0.352596","0.25372"
"-0.09815700000000001","0.47822200000000004","0.46626999999999996"
"-0.308729","0.619418","0.5295569999999999"
"-0.434989","0.700388","-0.069987"
"-0.440672","0.705174","-0.023490999999999998"
"-0.125406","0.53252","0.36780300000000005"
"0.139158","0.0335","0.358031"
"0.248092","-0.083777","0.467008"
"0.349535","-0.349727","0.450424"
"0.383467","-0.506471","0.788852"
"0.18746","-0.712086","0.590059"
"-0.09577100000000001","-0.875726","0.184389"
"-0.002479","-0.673054","0.286972"
"0.06401699999999999","-0.47390200000000005","0.274574"
"0.06357","-0.46098100000000003","0.355679"
"-0.0061649999999999995","-0.582171","0.300797"
"-0.12451500000000001","-0.61919","0.14432799999999998"
"-0.203717","-0.555906","-0.047761"
"-0.191349","-0.229002","-0.271951"
"-0.27173200000000003","0.821732","-0.753346"
"-0.242544","1.98553","-1.0586389999999999"
"-0.277413","0.563335","-0.733967"
"-0.457801","-0.8017529999999999","-0.357455"
"-0.054702999999999995","-0.024382","0.300298"
"0.058828","0.493357","0.48241999999999996"
"-0.041578","1.4233930000000001","0.759342"
"0.30201","0.050688","0.380961"
"0.020252000000000003","-0.558267","0.877719"
"-0.17140999999999998","-0.664515","0.45487"
"0.179929","0.446377","-0.41964799999999997"
"0.626959","0.518893","0.48778900000000003"
"0.548477","0.027819","0.5419390000000001"
"0.154888","-0.044034","0.218154"
"-0.06628400000000001","-0.15872","0.007092"
"-0.264473","-0.201754","0.17211600000000002"
"-0.138483","-0.173333","0.163221"
"0.09265599999999999","-0.157123","0.05736599999999999"
"0.2188","-0.030877999999999996","-0.035374"
"0.26601199999999997","-0.115355","-0.010449"
"0.16030899999999998","-0.28833000000000003","-0.128661"
"0.080196","-0.321883","0.011516"
"-0.034722","-0.21217600000000003","0.212575"
"-0.15502","-0.023533000000000002","0.11559100000000001"
"-0.133165","0.101839","-0.410387"
"-0.050408999999999995","0.185283","-0.7942279999999999"
"-0.051698","0.369703","-0.240402"
"-0.0032189999999999996","0.26649","-0.40063200000000004"
"0.12476400000000001","0.315929","-0.039871"
"0.13167","0.608694","-0.172752"
"0.077126","0.643424","-0.262385"
"0.167776","0.375188","0.050964999999999996"
"0.034933","0.35086300000000004","0.007245000000000001"
"-0.143956","0.16737","0.088133"
"-0.216667","0.20737199999999997","0.35146700000000003"
"-0.368755","0.6937840000000001","0.158352"
"-0.28185","0.786607","0.149124"
"-0.208515","0.805722","0.102627"
"0.146654","0.499699","0.27352"
"0.16778900000000002","0.511977","0.32101999999999997"
"0.31049","-0.16905","0.57316"
"0.316797","-0.480425","0.7281569999999999"
"0.189326","-0.559033","0.296601"
"-0.108392","-0.7549640000000001","0.293564"
"0.0019140000000000001","-0.697235","0.296498"
"0.12908599999999998","-0.552237","0.347704"
"0.11226300000000002","-0.45168500000000006","0.41550600000000004"
"0.0683","-0.444458","0.434436"
"-0.005386","-0.5270699999999999","0.405411"
"-0.099437","-0.599777","0.349026"
"-0.204073","-0.56433","0.198501"
"-0.263997","-0.365079","-0.056188999999999996"
"-0.308989","0.140526","-0.5069560000000001"
"-0.077078","1.54619","-1.033574"
"-0.046829","1.598163","-0.9780200000000001"
"-0.467858","-0.842058","-0.34936"
"-0.408725","-1.192021","-0.179041"
"-0.10964700000000001","-0.307104","0.265406"
"0.11386700000000001","1.018623","0.663972"
"0.149847","1.366433","0.555267"
"0.311212","0.34915799999999997","0.463113"
"-0.10987100000000001","-0.545592","1.025414"
"-0.278742","-0.871768","0.930797"
"0.101655","0.26913000000000004","-0.517605"
"0.852454","0.285957","0.677751"
"0.701952","0.26610100000000003","0.655053"
"0.05167000000000001","0.07840499999999999","0.10338599999999999"
"-0.290607","-0.058661000000000005","0.032760000000000004"
"-0.25159499999999996","-0.26612199999999997","0.16008499999999998"
"-0.160108","-0.294637","-0.10787200000000001"
"0.029636000000000003","-0.233604","0.081135"
"0.033712","-0.20512800000000003","-0.070511"
"0.09714400000000001","-0.19453399999999998","-0.036754"
"0.198674","-0.17515999999999998","0.025419999999999998"
"0.17499","-0.092486","0.032601"
"0.186523","0.104599","-0.055342999999999996"
"0.19453199999999998","0.127227","-0.322486"
"0.116475","0.217108","-0.819717"
"0.040705","0.30564","-0.70523"
"0.039639","0.365985","-0.522392"
"0.163024","0.293491","-0.177249"
"0.07586","0.297607","-0.110822"
"-0.247322","0.267728","-0.360096"
"0.117176","0.18295799999999998","-0.20878200000000002"
"0.239423","0.458909","0.14471199999999998"
"0.20956599999999997","0.666255","0.407916"
"-0.13943599999999998","0.729793","0.5942"
"-0.597481","0.5851729999999999","0.383698"
"-0.523205","0.531759","0.065339"
"-0.349466","0.599907","0.16628199999999999"
"-0.067454","0.5068699999999999","0.31047600000000003"
"0.213964","0.295935","0.369496"
"0.378713","0.183975","0.467768"
"0.40812600000000004","-0.044593","0.350099"
"0.143453","-0.46198900000000004","0.295101"
"0.036036","-0.772588","0.61935"
"0.087461","-0.77882","0.5612590000000001"
"0.11190499999999999","-0.747634","0.502739"
"0.068475","-0.672239","0.401417"
"0.011465000000000001","-0.6865439999999999","0.404533"
"-0.108109","-0.707647","0.365892"
"-0.170498","-0.717491","0.22421"
"-0.156649","-0.534824","0.076862"
"-0.22106199999999998","0.19443","-0.298572"
"-0.200226","1.6817779999999998","-1.0650819999999999"
"-0.265345","2.175068","-1.414531"
"-0.44068100000000004","-0.5125069999999999","-0.891487"
"-0.342298","-1.058437","-0.494866"
"-0.066432","0.689448","0.5027699999999999"
"0.162926","2.347713","1.1731690000000001"
"0.587424","0.531611","0.689973"
"0.270363","-0.8846370000000001","0.73349"
"-0.322914","-1.06352","0.935153"
"-0.14589100000000002","0.242508","-0.185585"
"0.474729","0.596039","0.333794"
"0.6237659999999999","0.232179","0.713017"
"0.2277","0.10481300000000002","0.133894"
"0.142183","-0.066232","-0.19505"
"0.035688","-0.214075","0.444119"
"-0.039421","-0.377182","0.393922"
"-0.044066","-0.352987","0.068989"
"0.019101","-0.21362899999999999","-0.038096"
"0.128597","-0.249156","-0.083101"
"0.112081","-0.225108","-0.10561300000000001"
"0.043930000000000004","-0.13227","-0.014688"
"-0.036308999999999994","-0.02936","-0.01546"
"-0.039434","-0.007873999999999999","-0.098398"
"0.101359","0.229699","-0.830033"
"0.12129200000000001","0.260493","-0.294535"
"0.042575","0.34565","-0.322232"
"0.26766999999999996","0.21163099999999999","-0.271477"
"0.191301","0.467476","-0.160276"
"-0.05495","0.44623999999999997","-0.401623"
"-0.159573","0.44228599999999996","-0.49675"
"0.307058","0.22651","-0.021946"
"0.255436","0.475901","0.009931"
"-0.163849","0.481583","0.317321"
"-0.406039","0.510741","0.411153"
"-0.392996","0.557503","0.35954899999999995"
"-0.21522","0.509505","0.084382"
"-0.045396","0.5816859999999999","0.376417"
"0.076225","0.47017200000000003","0.471583"
"0.174763","0.353475","0.37091599999999997"
"0.351707","0.0496","0.23389000000000001"
"0.1764","-0.22964","0.26200999999999997"
"0.09349600000000001","-0.334897","0.45579200000000003"
"0.139675","-0.724668","0.646439"
"0.16100799999999998","-0.696142","0.640467"
"0.097429","-0.664135","0.635358"
"0.019547","-0.554763","0.5277149999999999"
"-0.054709","-0.548021","0.555233"
"-0.130743","-0.574689","0.44267399999999996"
"-0.200025","-0.588843","0.279613"
"-0.235657","-0.535871","0.14122300000000002"
"-0.245804","0.283697","-0.345538"
"-0.160856","1.594883","-0.957723"
"-0.270102","2.0875","-1.068195"
"-0.20759299999999997","-0.172631","-1.149152"
"0.072415","-0.46711499999999995","-0.474429"
"0.056587","-0.277619","-0.170264"
"0.45904399999999995","0.593689","0.804999"
"0.45976999999999996","0.9187860000000001","0.7879109999999999"
"0.162116","0.477045","1.103166"
"-0.40401","-0.567419","0.909493"
"-0.532187","-0.30379","-0.222505"
"-0.0218","0.171996","-0.443241"
"0.7919930000000001","0.160689","0.747334"
"0.449585","-0.01994","0.626764"
"0.030302","-0.04559","0.000471"
"-0.107787","-0.035783999999999996","-0.054058"
"-0.050266000000000005","-0.208198","0.253071"
"-0.048199","-0.356604","0.24929099999999998"
"-0.010182","-0.392514","0.000479"
"0.043095999999999995","-0.272737","-0.059386"
"0.150043","-0.22200799999999998","0.013323"
"0.174191","-0.176812","0.059191999999999995"
"-0.09125599999999999","-0.073404","0.24791799999999997"
"-0.20435599999999998","0.111873","0.090768"
"-0.12276","0.195496","-0.038867"
"0.256171","0.450075","-0.9192309999999999"
"0.34567","0.382975","-0.520625"
"0.18362","0.25945799999999997","-0.189891"
"0.343192","0.275973","-0.23542600000000002"
"0.294078","0.325318","-0.257205"
"0.186435","0.28533600000000003","-0.293126"
"-0.156162","0.278507","-0.105754"
"-0.104314","0.197364","-0.005344"
"-0.09774","0.253","0.151369"
"-0.188112","0.463962","0.397461"
"-0.25963600000000003","0.5979939999999999","0.519296"
"-0.395024","0.6128439999999999","0.381828"
"-0.466027","0.591992","0.307742"
"-0.251452","0.5767979999999999","0.340248"
"-0.044567","0.35834699999999997","0.35547199999999995"
"0.04936","0.19100599999999998","0.037275"
"0.252458","0.029166","0.061929"
"0.046186000000000005","-0.085384","0.624321"
"-0.031521","-0.604664","0.744466"
"0.051182","-0.777624","0.689669"
"0.133749","-0.785173","0.489795"
"0.094829","-0.70092","0.46651400000000004"
"0.043751","-0.586834","0.45682799999999996"
"0.021112","-0.521551","0.45510900000000004"
"-0.01934","-0.561046","0.42465299999999995"
"-0.152148","-0.634947","0.168758"
"-0.140605","-0.5765710000000001","-0.038903"
"-0.165796","-0.009731","-0.30628099999999997"
"-0.035077","1.721958","-1.088777"
"-0.075822","2.7430950000000003","-1.129528"
"-0.5577449999999999","-0.069148","-1.168251"
"-0.25496399999999997","-0.7386590000000001","-0.2911"
"-0.244315","-0.092276","0.408699"
"0.49552799999999997","0.6900229999999999","1.147895"
"0.119149","0.939225","0.7087"
"0.106955","-0.515178","0.582389"
"0.044483999999999996","-0.33924499999999996","0.9277290000000001"
"0.087924","-0.046625","0.438404"
"0.322494","0.8197209999999999","-0.011621"
"0.374262","0.42300200000000004","0.560825"
"0.18717","0.085349","0.510888"
"0.100892","-0.129333","0.08099400000000001"
"-0.016972","-0.062702","0.143974"
"-0.056746000000000005","-0.120754","0.19275699999999998"
"-0.09439199999999999","-0.392874","0.077606"
"-0.14873599999999998","-0.41665100000000005","0.079247"
"-0.100849","-0.405803","0.093668"
"0.08946799999999999","-0.293921","0.07418999999999999"
"0.18301099999999998","-0.13539400000000001","0.166545"
"0.143599","-0.098009","0.14501"
"0.076638","0.020191999999999998","0.084327"
"-0.064839","0.24371199999999998","-0.562191"
"0.028566","0.314902","-0.864373"
"0.153892","0.300664","-0.658105"
"0.0046689999999999995","0.461226","-0.389337"
"0.131332","0.372555","-0.290691"
"0.300394","0.235279","-0.175285"
"-0.048303","0.41779799999999995","-0.469549"
"-0.12973900000000002","0.42594099999999996","-0.427155"
"-0.11944500000000001","0.378592","-0.2781"
"0.013991","0.203069","-0.059133000000000005"
"-0.07083099999999999","0.254301","0.21916"
"0.027466","0.595461","0.48472200000000004"
"-0.284089","0.6625989999999999","0.46666"
"-0.446884","0.7001109999999999","0.36614800000000003"
"-0.309241","0.5374979999999999","0.43064399999999997"
"-0.036008","0.453718","0.48039799999999994"
"0.04093","0.293926","0.420814"
"0.123616","-0.020772","-0.173426"
"0.190243","0.014556999999999999","0.21015799999999998"
"0.095794","-0.049165","0.496217"
"0.04961","-0.562932","0.551281"
"0.051321000000000006","-0.680608","0.568959"
"0.10441900000000001","-0.790691","0.632636"
"0.077896","-0.696739","0.5100819999999999"
"0.064272","-0.611429","0.461679"
"0.023121","-0.674562","0.433825"
"-0.128052","-0.696878","0.375635"
"-0.217088","-0.652025","0.264725"
"-0.22325799999999998","-0.39305100000000004","0.09277"
"-0.14193499999999998","0.422782","-0.322556"
"-0.109998","2.465544","-0.982925"
"-0.341371","1.726863","-1.121426"
"-0.36228699999999997","-0.7854909999999999","-1.323325"
"0.014553","-1.000952","-0.47043999999999997"
"-0.317575","-0.034201","0.385519"
"0.19083699999999998","0.6368199999999999","1.0722209999999999"
"0.33015500000000003","1.596565","0.713672"
"0.33276100000000003","1.031005","0.9259459999999999"
"-0.066763","-0.53228","0.9321450000000001"
"-0.41736899999999993","-0.525072","0.441191"
"0.014891999999999999","0.5151819999999999","-0.46208999999999995"
"0.506981","0.327071","0.718854"
"0.152151","0.101243","0.44216700000000003"
"0.06692200000000001","0.10643499999999999","0.23487399999999997"
"-0.015686000000000002","-0.046521","0.136156"
"-0.110481","-0.32424899999999995","0.210603"
"-0.20058800000000002","-0.46066899999999994","0.197344"
"-0.048764","-0.334947","0.16508499999999998"
"0.042612","-0.304639","0.240229"
"0.097162","-0.213484","0.188397"
"0.005324000000000001","-0.209641","0.084288"
"-0.074249","-0.07992300000000001","0.017699"
"-0.15473699999999999","-0.030269","-0.10818900000000001"
"-0.018524000000000002","0.069146","-0.48282299999999995"
"0.169782","0.26056799999999997","-0.426651"
"0.16578199999999998","0.38755100000000003","-0.414234"
"0.258214","0.45660500000000004","-0.46194300000000005"
"0.292358","0.336488","-0.373081"
"0.22586799999999999","0.298087","-0.173129"
"-0.230475","0.391993","-0.471793"
"-0.178035","0.134482","-0.130617"
"-0.226861","0.033977999999999994","-0.013297999999999999"
"-0.27508699999999997","0.21124600000000002","0.10300999999999999"
"-0.009413","0.582137","0.36748200000000003"
"0.026287","0.894224","0.508008"
"-0.5007510000000001","0.94611","0.43270600000000004"
"-0.682034","0.831577","0.07424299999999999"
"-0.173901","0.5493060000000001","0.191753"
"0.18284","0.320914","0.332613"
"0.455873","0.063458","0.289329"
"0.375897","-0.168919","0.08404199999999999"
"0.03985","-0.330074","0.29748600000000003"
"-0.143524","-0.532397","0.663311"
"-0.14338900000000002","-0.642373","0.6660470000000001"
"-0.029849","-0.697908","0.666639"
"0.037806","-0.745422","0.599168"
"0.025810000000000003","-0.6990850000000001","0.516037"
"-0.11570599999999999","-0.663506","0.421903"
"-0.19480999999999998","-0.6885220000000001","0.408667"
"-0.2275","-0.680959","0.282136"
"-0.196784","-0.595386","0.12269000000000001"
"-0.060234","0.525412","-0.35382600000000003"
"-0.042437","1.4370100000000001","-0.8278110000000001"
"-0.335925","2.682322","-1.3510950000000002"
"-0.5901689999999999","0.08584299999999999","-1.4480110000000002"
"0.006309","-1.128731","-0.46244799999999997"
"-0.088448","-0.47193900000000005","0.244279"
"0.13406500000000002","0.343208","1.271552"
"0.17751199999999998","1.7730860000000002","0.9639"
"0.361492","0.376579","0.449657"
"-0.136758","-0.60314","0.769304"
"-0.40369499999999997","-0.435776","0.471138"
"-0.360896","-0.105551","-0.000676"
"0.36956700000000003","0.11060199999999999","0.608761"
"0.263049","0.086102","0.352111"
"0.187501","0.123306","0.249219"
"0.201184","0.036868","0.325716"
"0.058824","-0.236821","0.32723"
"-0.122573","-0.479318","0.146985"
"-0.169977","-0.38054499999999997","0.121169"
"-0.203016","-0.322954","0.089776"
"-0.122406","-0.212162","0.158328"
"-0.103379","-0.189092","0.062372000000000004"
"-0.101247","-0.095114","0.0008529999999999999"
"0.014605000000000002","0.136327","-0.330202"
"0.069765","0.271483","-0.722336"
"0.300398","0.331907","-0.6249359999999999"
"0.12118399999999999","0.312742","-0.43544399999999994"
"0.110062","0.41304300000000005","-0.511571"
"0.273412","0.207321","-0.38213400000000003"
"0.08115900000000001","0.38704299999999997","-0.144886"
"-0.125225","0.461764","-0.402859"
"-0.29406","0.259893","-0.17735499999999998"
"-0.076003","0.02404","0.085638"
"-0.09691","0.389935","0.178956"
"-0.149121","0.44883599999999996","0.31453400000000004"
"-0.343346","0.707642","0.52881"
"-0.642726","0.755846","0.258343"
"-0.547746","0.653042","0.091962"
"-0.162881","0.508911","0.357836"
"0.156091","0.315325","0.45259499999999997"
"0.239839","0.08047699999999999","0.065737"
"0.334221","-0.038814999999999995","-0.12833"
"0.11994200000000001","-0.149377","0.373523"
"0.003616","-0.302637","0.526714"
"-0.073911","-0.730631","0.653083"
"-0.012972","-0.703464","0.612797"
"-0.050695","-0.7071850000000001","0.491782"
"-0.072394","-0.678153","0.4326"
"-0.15886199999999998","-0.656586","0.396751"
"-0.163319","-0.674401","0.35985900000000004"
"-0.17746199999999998","-0.704022","0.291202"
"-0.06590800000000001","-0.400408","-0.162866"
"-0.057504999999999994","-0.045166000000000005","-0.373156"
"-0.007398","0.46601400000000004","-0.72607"
"-0.23535","2.513931","-1.09687"
"-0.319231","1.369559","-1.50027"
"0.042763","-0.562117","-0.323125"
"-0.00014199999999999998","0.28093","0.778227"
"0.222872","1.397774","1.9020740000000003"
"0.067205","-0.054470000000000005","0.526772"
"-0.101002","-0.699616","0.43079399999999995"
"-0.268808","-0.338425","0.22769099999999998"
"-0.026461000000000002","0.493497","-0.151482"
"0.6153770000000001","0.569682","0.720382"
"0.436389","0.170691","0.5057550000000001"
"0.07232899999999999","-0.068756","0.123849"
"-0.11881199999999999","-0.17236500000000002","0.30348800000000004"
"-0.219888","-0.31219600000000003","0.26763400000000004"
"-0.329427","-0.274969","0.07876"
"-0.133276","-0.197448","0.079788"
"-0.048677","-0.186635","0.014931999999999999"
"0.086141","-0.223273","0.051337"
"0.087978","-0.18696500000000002","0.06237"
"0.037683","-0.102286","0.053051"
"0.00275","0.055147","-0.241096"
"0.11993699999999999","0.196655","-0.6387079999999999"
"0.172079","0.10887100000000001","-0.469606"
"-0.051998","0.264534","-0.372253"
"0.098871","0.310172","-0.515506"
"0.428796","0.153274","-0.22943899999999998"
"0.30607","0.319834","-0.025907999999999997"
"-0.22397899999999998","0.40861","-0.468758"
"-0.287197","0.20924","-0.15967"
"-0.131949","0.12133800000000002","0.052428999999999996"
"-0.21643400000000002","0.41578100000000007","0.140308"
"-0.209756","0.547216","0.23409000000000002"
"-0.29284","0.76545","0.49268599999999996"
"-0.573364","0.7225159999999999","0.37751999999999997"
"-0.650716","0.6367010000000001","0.28807699999999997"
"-0.297589","0.537231","0.358469"
"0.024108","0.399513","0.420666"
"0.162436","0.071388","0.164056"
"0.225872","-0.113553","0.035061"
"0.08914","-0.159948","0.38345300000000004"
"-0.007254999999999999","-0.201586","0.622314"
"-0.006924","-0.695096","0.6096689999999999"
"-0.045917","-0.703118","0.48589099999999996"
"-0.11086900000000001","-0.599172","0.46441899999999997"
"-0.06976399999999999","-0.619821","0.493439"
"-0.090119","-0.63875","0.407525"
"-0.113722","-0.659686","0.392744"
"-0.17945999999999998","-0.667604","0.33071500000000004"
"-0.157645","-0.520541","-0.066925"
"-0.12778399999999998","-0.190722","-0.11621600000000001"
"-0.09489700000000001","0.28392399999999995","-0.38198000000000004"
"-0.393137","2.991398","-1.191128"
"-0.634876","0.253342","-1.604298"
"-0.18445899999999998","-1.0363930000000001","-0.040966"
"-0.068851","-0.06929199999999999","0.768319"
"0.17782799999999999","0.238875","1.306327"
"0.043449","1.4061059999999999","0.791883"
"0.43910600000000005","0.010685","0.088171"
"0.177803","-0.399901","0.817208"
"-0.146457","-0.236157","0.357252"
"0.00614","0.512271","-0.178283"
"0.089711","0.38363600000000003","0.224593"
"0.179606","0.097998","0.556422"
"-0.065308","-0.129853","0.190421"
"-0.20546799999999998","-0.167504","0.13011099999999998"
"-0.221086","-0.476367","0.330329"
"-0.061653","-0.397923","0.21664899999999998"
"0.024978","-0.105432","0.25311"
"0.110827","-0.073774","0.08672300000000001"
"0.09730599999999999","-0.17089000000000001","-0.07856"
"0.013359000000000001","-0.13051300000000002","-0.13024000000000002"
"-0.030354000000000003","-0.010783","-0.307109"
"0.064823","0.040152999999999994","-0.41532600000000003"
"0.015572999999999998","0.18267","-0.394493"
"-0.029149","0.280685","-0.393304"
"0.266675","0.307987","-0.522133"
"0.347063","0.30567","-0.341751"
"0.283414","0.280791","-0.157911"
"0.033717000000000004","0.286792","-0.096483"
"-0.183419","0.346045","-0.30666"
"-0.220367","0.295065","-0.24447399999999997"
"-0.059454999999999994","0.056074","-0.022257"
"-0.095943","0.25090999999999997","0.098023"
"-0.15761","0.42982700000000007","0.24287399999999998"
"-0.255891","0.686245","0.45179899999999995"
"-0.639367","0.744425","0.47868999999999995"
"-0.5937180000000001","0.7020529999999999","0.055084"
"-0.274564","0.592268","0.246288"
"0.016517","0.477058","0.5219689999999999"
"0.197431","0.022729","0.41016099999999994"
"0.231217","-0.10273299999999999","0.192138"
"-0.037157","-0.272771","0.017283"
"-0.093501","-0.404143","0.5261560000000001"
"0.013350999999999998","-0.630944","0.518461"
"0.057426","-0.627116","0.493634"
"0.061911","-0.578946","0.509229"
"-0.116828","-0.671583","0.42949499999999996"
"-0.206423","-0.720051","0.41722700000000007"
"-0.248888","-0.678355","0.313731"
"-0.280958","-0.710859","0.19551"
"-0.24208400000000002","-0.6926939999999999","0.032559"
"-0.06368","0.270216","-0.365994"
"-0.10442799999999999","2.106471","-1.007737"
"-0.36899299999999996","2.692698","-1.2451450000000002"
"-0.341532","-0.654803","-0.9781059999999999"
"-0.179101","-0.8663770000000001","-0.35101"
"0.211248","0.8857389999999999","1.007676"
"0.254556","1.6446060000000002","1.322591"
"0.324203","0.652433","0.6958840000000001"
"0.065802","-0.745578","0.658017"
"-0.336301","-0.506158","0.609734"
"-0.021463999999999997","0.622333","-0.11113599999999998"
"0.418005","0.606768","0.477231"
"0.325395","0.022704","0.493953"
"0.032918","0.013561000000000002","0.254669"
"-0.025352","-0.069334","0.10708"
"-0.190207","-0.336208","0.381897"
"-0.22198400000000001","-0.425245","0.217427"
"-0.128216","-0.308012","0.17744200000000002"
"-0.076512","-0.26390399999999997","0.125497"
"-0.069589","-0.18096800000000002","-0.033902999999999996"
"-0.026349","-0.17258800000000002","-0.091664"
"-0.008256","-0.081488","-0.059909000000000004"
"0.044505","0.12629500000000002","-0.11000599999999999"
"0.036989999999999995","0.188138","-0.40377399999999997"
"0.117131","0.247406","-0.506224"
"0.037243","0.26655700000000004","-0.477055"
"0.13506600000000002","0.301113","-0.346001"
"0.291044","0.252359","-0.208173"
"0.20996599999999999","0.291716","-0.083664"
"-0.240073","0.386204","-0.370475"
"-0.312317","0.27999","-0.288434"
"-0.214518","0.122977","-0.14451"
"-0.11661700000000001","0.166277","0.027267000000000003"
"-0.18629400000000002","0.45538100000000004","0.170736"
"-0.131152","0.45660100000000003","0.41198199999999996"
"-0.354568","0.572973","0.428598"
"-0.553509","0.657874","0.22508899999999998"
"-0.464958","0.577818","0.162331"
"-0.158962","0.559937","0.373433"
"0.054974","0.012069","0.22875399999999999"
"0.060204999999999995","-0.042901999999999996","-0.095539"
"-0.003229","-0.099237","0.23854299999999998"
"-0.018401","-0.32714499999999996","0.581249"
"-0.0043560000000000005","-0.532261","0.543726"
"0.034786000000000004","-0.67286","0.5070979999999999"
"-0.044877999999999994","-0.657612","0.439042"
"-0.081235","-0.585421","0.383146"
"-0.106472","-0.5386890000000001","0.35331999999999997"
"-0.157894","-0.679229","0.397419"
"-0.216423","-0.657629","0.307032"
"-0.21793","-0.6838529999999999","0.06514400000000001"
"-0.180513","-0.361254","-0.09462999999999999"
"-0.08875599999999999","0.578","-0.558844"
"-0.137311","2.5646709999999997","-1.1911209999999999"
"-0.708134","1.154334","-1.646991"
"-0.216725","-0.879216","-0.6697270000000001"
"-0.306683","-0.68608","0.006813"
"-0.05899","0.222559","0.749103"
"0.169748","1.36744","1.492193"
"0.310707","0.711928","0.599859"
"0.28218699999999997","-0.631197","0.25100100000000003"
"-0.021308","-0.528894","0.947422"
"-0.281123","-0.14485","0.22536"
"-0.051","0.782334","-0.25760700000000003"
"0.328936","0.15518900000000002","0.537774"
"0.114281","0.027977","0.37064899999999995"
"-0.142585","0.0009449999999999999","0.083061"
"-0.153514","-0.43240500000000004","0.22422199999999998"
"-0.158387","-0.48177600000000004","0.21505700000000003"
"-0.103039","-0.437187","0.170241"
"-0.011006","-0.168716","0.14726199999999998"
"0.031688","-0.176263","0.065264"
"0.062247000000000004","-0.13106900000000002","-0.01546"
"-0.085251","0.043418","-0.057414"
"-0.08856900000000001","0.116353","-0.143809"
"0.015649","0.107221","-0.57355"
"0.105216","0.209448","-0.572663"
"0.036271","0.26376900000000003","-0.48046099999999997"
"0.043556","0.34776","-0.529705"
"0.279235","0.311675","-0.42448500000000006"
"0.378226","0.32145300000000004","-0.117993"
"0.024625","0.448572","-0.301027"
"-0.247085","0.408279","-0.312355"
"-0.206404","0.199272","-0.026732"
"-0.32775","0.46591000000000005","0.066852"
"-0.336974","0.483783","0.110693"
"-0.306786","0.527436","0.393882"
"-0.406937","0.63203","0.311988"
"-0.429101","0.659253","0.324294"
"-0.253499","0.568972","0.237211"
"0.020923","0.381813","0.29997199999999996"
"0.070965","0.17815799999999998","0.134216"
"0.179509","-0.133645","-0.044427"
"0.051913","-0.17364000000000002","0.496091"
"0.05209","-0.500152","0.6737920000000001"
"0.067743","-0.668018","0.47630900000000004"
"-0.013281","-0.735425","0.600436"
"-0.030733","-0.73438","0.5035149999999999"
"-0.057286000000000004","-0.616976","0.444536"
"-0.093502","-0.6272","0.43198400000000003"
"-0.194107","-0.62112","0.33720700000000003"
"-0.22236999999999998","-0.743939","0.235026"
"-0.239078","-0.670097","-0.007684999999999999"
"-0.21118699999999999","-0.10901300000000001","-0.247838"
"-0.200905","1.434699","-1.005728"
"-0.47213999999999995","2.6888919999999996","-1.064876"
"-0.563986","-0.25085","-1.372519"
"-0.067458","-1.0277530000000001","-0.449683"
"-0.24174099999999998","-0.051271000000000004","0.321826"
"0.310763","0.800229","1.2786600000000001"
"0.205996","1.6491959999999999","0.795396"
"0.308807","-0.18693900000000002","0.38279"
"-0.324395","-0.593046","0.76239"
"-0.35483200000000004","-0.41493","0.231014"
"-0.14438399999999998","0.213081","-0.269937"
"0.388126","0.087225","0.59621"
"0.17965","0.126152","0.5311"
"0.108607","0.133394","0.383836"
"-0.23264400000000002","-0.287004","0.269869"
"-0.27566399999999996","-0.42155200000000004","0.24001599999999998"
"-0.28318699999999997","-0.47090299999999996","0.230106"
"-0.09459400000000001","-0.24027800000000002","0.197787"
"-0.10027","-0.298921","0.15223399999999998"
"-0.103951","-0.318851","0.07747899999999999"
"0.009789","-0.319189","-0.072766"
"0.05442999999999999","-0.172548","-0.033195999999999996"
"0.11907000000000001","-0.005289","-0.233035"
"0.117697","0.186307","-0.522605"
"0.139573","0.281273","-0.438163"
"0.163419","0.47887399999999997","-0.585333"
"0.33111399999999996","0.493751","-0.290774"
"0.371313","0.415735","-0.199919"
"0.051157999999999995","0.488654","-0.262784"
"-0.144373","0.666497","-0.258231"
"-0.13910999999999998","0.638648","-0.155638"
"-0.12779000000000001","0.307234","0.050747"
"-0.361036","0.299971","0.096786"
"-0.454466","0.195468","0.076012"
"-0.479596","0.178346","0.272015"
"-0.379448","0.347165","0.252475"
"-0.252732","0.6059180000000001","0.21138200000000001"
"-0.241229","0.561602","0.211273"
"-0.10069","0.525254","0.42500200000000005"
"0.06928200000000001","0.156389","0.272465"
"0.240498","-0.081768","-0.024013999999999997"
"0.275073","-0.110224","0.17921199999999998"
"-0.003997","-0.398266","0.537257"
"-0.028577999999999996","-0.6713210000000001","0.599639"
"-0.059999000000000004","-0.697477","0.519762"
"-0.14019500000000001","-0.648281","0.484325"
"-0.117309","-0.586781","0.44210200000000005"
"-0.12085499999999999","-0.5869310000000001","0.37294"
"-0.123358","-0.601711","0.38562199999999996"
"-0.209044","-0.71323","0.22663000000000003"
"-0.22575100000000003","-0.6397510000000001","0.09971100000000001"
"-0.236335","-0.575908","-0.023485"
"-0.11045799999999999","0.820284","-0.7289220000000001"
"-0.29602399999999995","2.799557","-1.309122"
"-0.7674350000000001","0.554529","-1.5142200000000001"
"-0.069439","-1.037556","-0.521637"
"-0.187632","-0.407775","0.072028"
"0.291189","0.5179279999999999","0.9466899999999999"
"0.314668","1.1253879999999998","1.012925"
"0.099785","0.27416799999999997","0.46656000000000003"
"0.210098","-0.45100200000000007","0.708138"
"-0.35823499999999997","-0.381484","0.564022"
"0.06673899999999999","0.758657","-0.051651999999999997"
"0.227386","0.527986","0.45491099999999995"
"0.282208","0.045648","0.7319939999999999"
"-0.054916999999999994","0.079976","0.146892"
"-0.002782","-0.0014060000000000001","0.101341"
"-0.138979","-0.261646","0.250192"
"-0.193406","-0.284688","0.208029"
"-0.194271","-0.288622","0.018006"
"-0.145733","-0.288444","-0.022622"
"0.045125","-0.249631","-0.038389"
"0.109864","-0.23123400000000002","-0.038282"
"0.08012899999999999","-0.11558299999999999","-0.025043"
"0.019405000000000002","0.090162","-0.17059000000000002"
"0.024872","0.148501","-0.400062"
"0.123142","0.179518","-0.49480799999999997"
"0.045251","0.258781","-0.41546400000000006"
"0.012218000000000001","0.325227","-0.502904"
"0.278426","0.239114","-0.328146"
"0.20695100000000002","0.39148099999999997","-0.06803300000000001"
"-0.144688","0.423283","-0.505307"
"-0.165821","0.30559200000000003","-0.233356"
"-0.03391","0.168784","-0.0009"
"-0.262731","0.425882","0.048536"
"-0.155354","0.545704","0.299697"
"-0.17086700000000002","0.749502","0.44903000000000004"
"-0.468908","0.708976","0.20878200000000002"
"-0.358638","0.6766409999999999","0.148647"
"-0.13242400000000001","0.557192","0.5393439999999999"
"-0.015519","0.22637600000000002","0.134549"
"0.087854","0.073764","-0.037432"
"0.23156300000000002","-0.077937","0.041681"
"0.066233","-0.063184","0.35339899999999996"
"-0.04989","-0.557996","0.684022"
"-0.009235","-0.753286","0.712278"
"-0.0229","-0.752713","0.6778029999999999"
"-0.097976","-0.690917","0.478343"
"-0.079915","-0.607462","0.41734499999999997"
"-0.075432","-0.6098600000000001","0.39907"
"-0.14135","-0.650858","0.35443"
"-0.22749499999999998","-0.623609","0.22519499999999998"
"-0.21441500000000002","-0.596617","-7.6e-05"
"-0.157817","0.050163","-0.217518"
"-0.252758","2.749557","-1.280263"
"-0.612129","2.370809","-1.200808"
"-0.634922","-0.23558099999999998","-1.289778"
"-0.220989","-0.8843629999999999","-0.19148199999999999"
"-0.306821","0.171526","0.33373600000000003"
"0.282011","1.285303","0.773917"
"0.249523","0.832691","0.509508"
"0.21419699999999997","-0.43484399999999995","0.763529"
"-0.034151","-0.5631149999999999","0.9282459999999999"
"0.033895","0.364523","0.145229"
"0.10075","0.7245229999999999","-0.167633"
"0.26819499999999996","0.073055","0.465697"
"0.15404600000000002","0.020762","0.372477"
"0.107833","0.00282","0.172431"
"-0.128577","-0.273291","0.309398"
"-0.207085","-0.363531","0.138713"
"-0.182016","-0.29985900000000004","0.068674"
"-0.12241099999999999","-0.24706999999999998","0.043583"
"0.07078","-0.201017","0.056087"
"0.07901699999999999","-0.333312","0.118397"
"0.028188","-0.251211","0.102809"
"-0.043795999999999995","-0.032208","-0.064709"
"-0.067682","0.078989","-0.407127"
"0.09109400000000001","0.16944800000000002","-0.47125900000000004"
"0.117425","0.250275","-0.304821"
"-0.018279","0.46623400000000004","-0.574159"
"0.22098","0.37527699999999997","-0.42902299999999993"
"0.341558","0.342384","-0.222809"
"0.088763","0.494968","-0.367014"
"-0.12028399999999999","0.385841","-0.417396"
"-0.017580000000000002","0.20765100000000003","-0.131716"
"-0.048277999999999995","0.165017","0.007992"
"-0.12972999999999998","0.201452","0.095214"
"-0.15096500000000002","0.35615","0.263203"
"-0.14375","0.5532729999999999","0.491302"
"-0.47021199999999996","0.723982","0.34420500000000004"
"-0.581188","0.721033","0.181838"
"-0.303273","0.601088","0.284143"
"0.026704000000000002","0.401502","0.32616100000000003"
"0.15263","0.11924000000000001","-0.014663999999999998"
"0.42689499999999997","-0.12058800000000001","-0.20730700000000002"
"0.11081300000000001","-0.08331799999999999","0.383038"
"-0.162325","-0.486975","0.609015"
"-0.054529999999999995","-0.7593","0.676904"
"0.051436","-0.813297","0.663127"
"-0.06367300000000001","-0.7653300000000001","0.566493"
"-0.11404600000000001","-0.6921689999999999","0.443092"
"-0.11232400000000001","-0.6121260000000001","0.45320200000000005"
"-0.175525","-0.615977","0.383826"
"-0.24725100000000003","-0.631641","0.233384"
"-0.2628","-0.372793","-0.0067150000000000005"
"-0.148092","0.411463","-0.400871"
"-0.080135","2.32987","-1.077002"
"-0.397733","2.691092","-1.239633"
"-0.313325","-0.632838","-0.9585229999999999"
"-0.207035","-0.681668","-0.12413900000000001"
"0.039162","0.27618000000000004","0.564056"
"0.362811","1.078023","1.3203690000000001"
"0.158005","0.7931739999999999","0.7280989999999999"
"0.190553","-0.617121","0.470976"
"0.059672","-0.5664359999999999","0.8207040000000001"
"-0.150365","-0.076726","0.004554"
"0.184124","0.728246","0.044547"
"0.371438","-0.0036","0.709327"
"0.240945","-0.059253999999999994","0.511434"
"-0.001745","0.095605","0.091958"
"-0.029956","-0.121983","0.32075"
"-0.22469899999999998","-0.419439","0.23575700000000002"
"-0.229081","-0.400163","0.099957"
"-0.083743","-0.33213200000000004","0.012875999999999999"
"-0.040273","-0.239873","0.0463"
"0.018671","-0.16238699999999998","0.063937"
"0.002421","-0.11476199999999999","0.028917"
"-0.05480499999999999","0.049091","-0.000139"
"-0.066595","0.232317","-0.397495"
"0.147581","0.23604","-0.528668"
"0.129443","0.22973000000000002","-0.38354699999999997"
"0.11124200000000001","0.285111","-0.436388"
"0.244319","0.344648","-0.460987"
"0.369346","0.27232399999999995","-0.328629"
"0.003037","0.412813","-0.283789"
"-0.076156","0.30204000000000003","-0.12160699999999999"
"-0.024191999999999998","0.269803","0.08425"
"-0.11213599999999999","0.364908","0.20138699999999998"
"-0.5381739999999999","0.498497","0.38443"
"-0.46464099999999997","0.596201","0.454568"
"-0.44378","0.702186","0.322205"
"-0.353582","0.744154","0.032951999999999995"
"-0.177317","0.570783","0.403669"
"-0.012495000000000001","0.350249","0.40979399999999994"
"0.178026","0.10533900000000002","0.198926"
"0.327889","-0.10404400000000001","-0.011343"
"0.10593699999999999","-0.355575","0.322804"
"-0.024099000000000002","-0.591309","0.623768"
"-0.039015","-0.722021","0.694701"
"-0.111115","-0.6758850000000001","0.5658529999999999"
"-0.09676599999999999","-0.640525","0.496392"
"-0.053279999999999994","-0.628185","0.460133"
"-0.13597599999999999","-0.630501","0.361029"
"-0.170073","-0.663736","0.29144000000000003"
"-0.261948","-0.754975","0.151981"
"-0.160915","-0.386384","0.004339"
"-0.13389","-0.026077","-0.138061"
"-0.07357799999999999","2.583027","-1.109975"
"-0.42858100000000005","2.6106409999999998","-1.167481"
"-0.450036","-0.6507430000000001","-0.770846"
"-0.330432","-0.6925939999999999","-0.008728"
"-0.16204000000000002","0.282091","0.585885"
"0.18520599999999998","0.892092","1.289919"
"0.12624100000000002","0.7482489999999999","0.7384569999999999"
"0.25264200000000003","-0.353569","0.28721399999999997"
"0.109535","-0.332527","0.769876"
"0.049564","-0.043738","0.37068"
"0.25808600000000004","0.6104109999999999","0.079925"
"0.111436","0.081179","0.50174"
"-0.003901","-0.035695","0.33852"
"-0.18593099999999999","0.078806","0.106553"
"-0.09477000000000001","-0.217525","0.348869"
"-0.085806","-0.36175100000000004","0.31521"
"-0.080051","-0.396175","0.17699700000000002"
"-0.045471","-0.347996","0.167173"
"-0.0021899999999999997","-0.312814","0.102871"
"-0.030994999999999998","-0.2532","0.054086"
"-0.081673","-0.0016309999999999999","-0.069885"
"-0.015925","0.116073","-0.10256300000000002"
"0.039958","0.233828","-0.29881199999999997"
"0.158255","0.292512","-0.372204"
"0.111713","0.315535","-0.430414"
"0.053227","0.372762","-0.48992299999999994"
"0.43237200000000003","0.263343","-0.24437399999999998"
"0.387701","0.32784","-0.18887400000000001"
"0.222717","0.394154","-0.201343"
"-0.311202","0.452559","-0.313796"
"-0.164179","0.265648","-0.191907"
"-0.093307","0.12001600000000001","-0.020572"
"-0.25411999999999996","0.308893","0.044188"
"-0.254133","0.359879","0.295095"
"-0.289623","0.6100140000000001","0.443112"
"-0.537048","0.7944","0.284862"
"-0.55589","0.6700510000000001","-0.022167"
"-0.309384","0.5217069999999999","0.198416"
"-0.11947999999999999","0.11033","0.27939400000000003"
"0.029320999999999996","-0.009106","0.404381"
"0.306409","-0.24859","0.323204"
"0.258277","-0.491267","0.30156"
"0.24052800000000002","-0.603754","0.48848"
"0.216975","-0.73077","1.041174"
"-0.204757","-0.616178","0.381916"
"-0.301822","-0.667794","0.278482"
"-0.214034","-0.5514060000000001","0.190871"
"-0.252754","-0.5130239999999999","0.252402"
"-0.328782","-0.610612","0.12013599999999999"
"-0.388835","-0.551581","0.055487"
"-0.231345","-0.120673","-0.045655"
"-0.051503","0.752667","-0.47776499999999994"
"-0.050743","2.200263","-1.206721"
"-0.145674","1.976048","-1.331045"
"-0.43892","-0.9527760000000001","-0.692"
"-0.21725999999999998","-0.9437969999999999","0.221518"
"0.112015","-0.43211499999999997","0.986093"
"-0.020135","0.545461","1.457877"
"-0.05325","1.348015","1.2001389999999998"
"0.125005","1.303747","-0.656829"
"0.482944","-0.31741199999999997","0.61074"
"-0.40419499999999997","-0.841698","0.524938"
"-0.48399200000000003","0.014797","-0.177696"
"0.078095","-0.0037670000000000004","0.588919"
"0.378347","0.071667","0.44386000000000003"
"0.21056100000000003","0.038118","0.150741"
"-0.066528","-0.21982100000000002","0.407015"
"-0.26221","-0.346281","0.388313"
"-0.011136","-0.22049000000000002","0.158282"
"0.11855999999999998","-0.142735","0.077954"
"0.09725299999999999","-0.10663099999999999","0.007661"
"-0.288206","-0.169071","-0.225005"
"-0.271648","-0.12203","-0.14659"
"-0.180535","-0.085467","-0.067563"
"0.11301300000000002","0.32576","-0.55711"
"0.125783","0.352283","-0.459416"
"0.102566","0.38840399999999997","-0.334138"
"0.257984","0.23615799999999998","-0.180652"
"0.295813","0.239652","-0.12256500000000001"
"0.23605399999999999","0.29227800000000004","-0.098954"
"-0.491728","0.213927","-0.373659"
"-0.252479","0.133746","-0.327959"
"0.062666","0.22858299999999998","-0.147668"
"-0.077236","0.42435900000000004","0.095765"
"-0.06615399999999999","0.382625","0.217254"
"-0.36025","0.643229","0.44203100000000006"
"-0.62397","0.6443770000000001","-0.005215"
"-0.645091","0.6536890000000001","-0.017687"
"-0.202003","0.49641899999999994","0.307058"
"-0.040576999999999995","0.255303","-0.0124"
"0.211085","0.08036499999999999","0.005106"
"0.240862","-0.041632","0.12408399999999999"
"0.10182000000000001","-0.219442","0.537429"
"-0.08618300000000001","-0.54885","0.586542"
"-0.10569300000000001","-0.82434","0.56307"
"-0.076623","-0.765045","0.39064699999999997"
"-0.11479500000000001","-0.650837","0.339785"
"-0.17093599999999998","-0.608803","0.341229"
"-0.230437","-0.6383300000000001","0.33710500000000004"
"-0.20077799999999998","-0.6237090000000001","0.284577"
"-0.209771","-0.64273","0.187499"
"-0.158167","-0.5370020000000001","-0.11231500000000001"
"-0.198971","-0.340596","-0.257357"
"-0.068714","1.489897","-1.0257049999999999"
"-0.140935","2.401912","-1.172842"
"-0.313523","1.0982120000000002","-1.123577"
"-0.478022","-0.791551","-0.05369500000000001"
"-0.075906","-0.11786500000000001","0.7756109999999999"
"0.060265","1.250437","1.620878"
"-0.068708","0.903724","0.42837600000000003"
"-0.12321199999999999","-0.666467","0.088032"
"-0.310529","-0.7728109999999999","0.9785290000000001"
"-0.45168800000000003","-0.072166","0.093632"
"0.142431","0.6120359999999999","0.11444000000000001"
"0.6322270000000001","0.185583","0.565126"
"0.215675","0.14112","0.14613099999999998"
"-0.169735","-0.185687","0.293077"
"-0.26712600000000003","-0.338377","0.35575500000000004"
"-0.261401","-0.442507","0.265887"
"-0.16036","-0.188452","-0.135892"
"-0.124601","-0.17446199999999998","-0.133932"
"-0.10643","-0.20186400000000002","-0.081834"
"-0.110268","-0.151621","-0.057346"
"-0.114571","-0.067316","-0.097664"
"0.042753","0.201546","-0.362266"
"0.041499","0.359153","-0.746576"
"0.052521000000000005","0.32855","-0.642225"
"0.13781400000000002","0.375734","-0.545093"
"0.414875","0.21410900000000002","-0.316312"
"0.484683","0.24423899999999998","-0.287556"
"-0.022997","0.500661","-0.39719099999999996"
"-0.202401","0.42064300000000004","-0.239984"
"-0.090197","0.178282","-0.010591"
"-0.206013","0.327297","0.10314300000000001"
"-0.36507","0.324677","0.194012"
"-0.386338","0.586953","0.33512"
"-0.469571","0.580121","0.167907"
"-0.542185","0.537309","0.022047"
"-0.41581999999999997","0.630963","-0.041801"
"-0.14062","0.458693","0.319947"
"0.11664100000000001","0.170293","0.300509"
"0.368948","-0.07696","0.192367"
"0.194191","-0.166236","0.14657699999999999"
"-0.095207","-0.5523319999999999","0.511968"
"-0.066024","-0.772712","0.574886"
"-0.005861","-0.755867","0.49742299999999995"
"-0.096055","-0.617596","0.408948"
"-0.095311","-0.57698","0.40170500000000003"
"-0.110627","-0.59721","0.40311199999999997"
"-0.21684699999999998","-0.664876","0.30784"
"-0.248022","-0.7049300000000001","0.223518"
"-0.217691","-0.530043","-0.025793"
"-0.123055","0.658608","-0.6148939999999999"
"-0.17538099999999998","1.539992","-0.9784799999999999"
"-0.512832","2.302565","-1.28629"
"-0.429856","-0.14993599999999999","-0.96305"
"-0.30096300000000004","-1.145269","0.077716"
"0.182599","-0.059432000000000006","0.669871"
"0.149007","0.881976","1.47486"
"-0.025086","1.263642","0.45099799999999995"
"0.279629","-0.108793","0.002393"
"-0.24304299999999998","-0.571274","0.697517"
"-0.320813","-0.371584","0.083358"
"-0.01344","0.516055","0.045313"
"0.353889","0.035664999999999995","0.622441"
"0.23403400000000002","0.076566","0.41447799999999996"
"0.097374","0.034197000000000005","0.10886300000000002"
"-0.21637699999999999","-0.299561","0.44820699999999997"
"-0.232585","-0.330243","0.35554"
"-0.194895","-0.327461","0.209995"
"-0.041344","-0.159807","-0.142057"
"-0.032361","-0.151792","-0.035193"
"-0.097469","-0.280616","0.036271"
"-0.26599","-0.2963","-0.119201"
"-0.172521","-0.071156","-0.283931"
"0.075424","0.255305","-0.524079"
"0.145156","0.277242","-0.601598"
"0.098773","0.28076","-0.46400699999999995"
"0.330917","0.369228","-0.329233"
"0.21273899999999998","0.36697199999999996","-0.23853000000000002"
"0.058703","0.390266","-0.306694"
"-0.165939","0.360487","-0.33287"
"-0.183274","0.191357","-0.140283"
"-0.148095","0.145616","-0.035683"
"-0.153039","0.558275","0.14723699999999998"
"-0.031704","0.576449","0.222717"
"-0.34144","0.735237","0.49185"
"-0.680739","0.705257","0.038705"
"-0.610069","0.643912","0.039115"
"-0.087699","0.539309","0.405055"
"0.077711","0.150061","0.31447800000000004"
"0.191175","0.012988999999999999","0.159303"
"0.12142599999999999","-0.109275","-0.008033"
"-0.024986","-0.380243","0.504387"
"0.030763","-0.6578970000000001","0.709002"
"0.143499","-0.7742479999999999","0.688489"
"-0.008145","-0.730394","0.5019640000000001"
"-0.022536","-0.682941","0.502919"
"-0.067107","-0.625784","0.44963400000000003"
"-0.14924400000000002","-0.620506","0.315363"
"-0.267873","-0.68308","0.329414"
"-0.27928000000000003","-0.679301","0.166074"
"-0.21654099999999998","-0.333833","-0.038493"
"-0.114042","1.200476","-0.691692"
"-0.132917","1.189363","-0.720164"
"-0.5633199999999999","1.474673","-1.0681770000000002"
"-0.209079","-0.786033","-0.6505489999999999"
"-0.092314","-0.785978","-0.284767"
"-0.093154","0.018536","0.41513100000000003"
"0.390936","0.6094310000000001","1.09297"
"0.173306","0.875152","0.852035"
"0.15404600000000002","-0.26213600000000004","0.508424"
"-0.005797","-0.397308","0.796846"
"-0.194157","-0.48480100000000004","0.602759"
"0.180167","0.452875","0.046919999999999996"
"0.264788","0.222865","0.45151099999999994"
"0.165757","0.051081","0.6046"
"0.040501","0.007198","0.156937"
"-0.172476","-0.027022000000000004","0.124426"
"-0.055527999999999994","-0.292434","0.19703900000000002"
"-0.046501999999999995","-0.280396","0.014292"
"0.041054","-0.203448","0.020552"
"0.053196","-0.21982600000000002","0.048777999999999995"
"-0.169786","-0.215306","0.005072999999999999"
"-0.142521","-0.08330900000000001","-0.054036"
"-0.113693","0.0399","-0.24774000000000002"
"0.079019","0.125059","-0.599983"
"0.150635","0.24145500000000003","-0.379887"
"-0.082066","0.33852","-0.36652399999999996"
"0.117851","0.381688","-0.491433"
"0.397656","0.21923600000000001","-0.313268"
"0.312687","0.386891","-0.168728"
"-0.038908","0.397997","-0.390521"
"-0.15987","0.41283500000000006","-0.393821"
"0.009244","0.13325399999999998","-0.085547"
"-0.1521","0.20844400000000002","0.063867"
"-0.21792899999999998","0.438331","0.161831"
"-0.28383","0.6350939999999999","0.470183"
"-0.508318","0.735506","0.314206"
"-0.625729","0.5798949999999999","0.125202"
"-0.537989","0.622938","0.107675"
"-0.350298","0.523267","0.313612"
"0.235681","0.10273299999999999","0.048293"
"0.270805","0.125807","0.12708699999999998"
"0.169193","-0.14525","0.218548"
"-0.005921","-0.551582","0.663829"
"-0.0033759999999999997","-0.687854","0.6889890000000001"
"0.02781","-0.759145","0.654021"
"-0.058168","-0.707497","0.482365"
"-0.049935","-0.6983779999999999","0.49728"
"-0.086261","-0.63855","0.43202399999999996"
"-0.200532","-0.649621","0.276353"
"-0.24503000000000003","-0.680593","0.19656500000000002"
"-0.251665","-0.6167239999999999","-0.021662999999999998"
"-0.251631","-0.050691","-0.163477"
"-0.257404","1.2481209999999998","-0.7442449999999999"
"-0.540245","2.6198349999999997","-1.14107"
"-0.621884","0.211711","-1.1339139999999999"
"-0.192055","-0.9645239999999999","-0.49757799999999996"
"-0.143972","-0.5865630000000001","0.112076"
"0.07323500000000001","0.173582","0.615011"
"0.243718","0.357038","0.91479"
"0.146903","0.943032","0.8866200000000001"
"0.136233","-0.36752399999999996","1.043325"
"-0.420151","-0.400325","0.613484"
"-0.054268","0.5777909999999999","-0.322436"
"0.257628","0.413022","0.717932"
"0.288225","0.058922","0.648277"
"0.058198","0.002409","0.325086"
"-0.10416199999999999","-0.030647000000000004","0.111074"
"-0.007551","-0.289148","0.243982"
"-0.08087899999999999","-0.385359","0.12275699999999999"
"-0.140079","-0.283121","0.11375299999999999"
"-0.109991","-0.243209","0.146199"
"-0.112634","-0.23618699999999998","0.020465"
"-0.042486","-0.179616","-0.177307"
"-0.030011000000000003","-0.070266","-0.202727"
"0.006706","0.100418","-0.42346000000000006"
"0.155406","0.287921","-0.5697"
"0.093403","0.279442","-0.38571300000000003"
"-0.10530999999999999","0.45502200000000004","-0.55032"
"0.22494","0.344643","-0.421699"
"0.361917","0.284868","-0.17674"
"0.048421","0.43455600000000005","-0.22104200000000002"
"-0.231802","0.400395","-0.45790600000000004"
"-0.16587000000000002","0.299102","-0.290878"
"-0.13585","0.174493","-0.17844400000000002"
"-0.14089000000000002","0.41387299999999994","0.097597"
"-0.126826","0.404368","0.172508"
"-0.081312","0.872296","0.524999"
"-0.7093550000000001","0.663582","-0.07254400000000001"
"-0.691461","0.611529","0.041186"
"-0.585548","0.514351","0.25001999999999996"
"0.12283599999999999","0.095488","0.212081"
"0.26121300000000003","0.0058130000000000005","0.250855"
"0.46464399999999995","-0.179621","-0.034775"
"0.117263","-0.33796","0.344963"
"-0.087244","-0.6015729999999999","0.6970890000000001"
"0.031682","-0.770748","0.678487"
"0.12236300000000001","-0.756102","0.626396"
"0.098024","-0.523985","0.523261"
"-0.075691","-0.55488","0.46686400000000006"
"-0.21904099999999999","-0.630744","0.41693500000000006"
"-0.293613","-0.635346","0.335133"
"-0.30908800000000003","-0.571596","0.108904"
"-0.239287","0.072892","-0.193274"
"-0.269425","0.5157149999999999","-0.544194"
"-0.5856279999999999","2.2824299999999997","-1.212329"
"-0.285419","0.180944","-1.085488"
"-0.132078","-0.906933","-0.455542"
"-0.156445","-0.490867","0.256822"
"0.014394","-0.142403","0.596935"
"0.30187600000000003","0.594657","1.019081"
"0.017079","0.777519","0.691334"
"0.13081199999999998","-0.113067","0.8941040000000001"
"-0.237029","-0.5151220000000001","0.775251"
"-0.025945999999999997","0.24593299999999998","-0.068332"
"0.468563","0.255301","0.647814"
"0.171297","0.028924000000000002","0.404647"
"-0.0724","-0.021929","0.281517"
"-0.076167","-0.15942","0.058075"
"-0.122394","-0.357896","0.199549"
"-0.040542","-0.48640900000000004","0.167182"
"-0.080404","-0.351654","0.006386"
"-0.06985","-0.22145900000000002","0.028005000000000002"
"-0.07910299999999999","-0.154412","-0.019901"
"-0.068756","-0.062229","-0.261259"
"-0.038306","0.051526","-0.174149"
"-0.031327","0.150206","-0.200095"
"0.133348","0.329367","-0.603877"
"0.175519","0.28725","-0.48782299999999995"
"-0.013318","0.439116","-0.520205"
"0.31848699999999996","0.241556","-0.289056"
"0.42938699999999996","0.21835100000000002","-0.181838"
"0.089181","0.384858","-0.30180799999999997"
"-0.297125","0.296207","-0.446588"
"-0.307702","0.221029","-0.317734"
"-0.13133499999999998","0.102969","-0.0347"
"-0.192833","0.46113699999999996","0.23999099999999998"
"-0.13003299999999998","0.516792","0.368285"
"-0.24488200000000002","0.8806639999999999","0.444087"
"-0.787837","0.641656","0.125195"
"-0.699508","0.637786","0.05244"
"-0.27274699999999996","0.48876400000000003","0.27982199999999996"
"0.052773","0.28322800000000004","0.25651999999999997"
"0.318129","0.058471","0.260994"
"0.408729","-0.134108","0.14376"
"0.012046","-0.410297","0.433433"
"-0.115007","-0.6491279999999999","0.749685"
"-0.11639300000000001","-0.734463","0.753745"
"0.018275","-0.728709","0.565213"
"-0.035139","-0.660834","0.484865"
"-0.13492200000000001","-0.7025520000000001","0.474154"
"-0.23403800000000002","-0.747605","0.354086"
"-0.284916","-0.7116600000000001","0.25898699999999997"
"-0.173217","-0.362072","0.040895999999999995"
"-0.15953699999999998","0.458737","-0.271244"
"-0.21029899999999999","1.059301","-0.622345"
"-0.6648229999999999","1.7308310000000002","-1.295501"
"-0.336271","-0.47161099999999995","-1.044604"
"-0.124883","-0.8708469999999999","-0.294004"
"-0.20308900000000002","-0.136379","0.481519"
"0.078687","0.175764","0.7637"
"0.009205","1.253974","0.932157"
"0.128662","0.423019","0.38305500000000003"
"0.18423399999999998","-0.233525","0.803335"
"-0.269397","-0.346166","0.513482"
"-0.012039","0.265024","-0.022223"
"0.164029","0.191498","0.560399"
"0.13910999999999998","-0.043726999999999995","0.505296"
"0.004816","0.110299","0.289954"
"0.024886000000000002","-0.07064","0.121476"
"-0.06091799999999999","-0.26351399999999997","0.30746999999999997"
"-0.180325","-0.41759300000000005","0.21730300000000002"
"-0.218223","-0.282442","0.032016"
"-0.164151","-0.200791","0.008298"
"-0.030911","-0.160029","0.021137"
"-0.018581","-0.197151","-0.173258"
"0.038541000000000006","-0.056199","-0.143406"
"0.01814","0.08733400000000001","-0.40431"
"0.0412","0.235398","-0.549497"
"0.014669999999999999","0.251044","-0.389843"
"-0.064709","0.39024000000000003","-0.5344409999999999"
"0.31456100000000004","0.250349","-0.187427"
"0.303784","0.296754","-0.082786"
"0.19280999999999998","0.374348","-0.122501"
"-0.17701","0.278443","-0.348547"
"-0.12563","0.246246","-0.22058899999999998"
"-0.07539900000000001","0.19727","-0.041419"
"-0.21979200000000002","0.457833","0.251386"
"-0.114357","0.538702","0.41275600000000007"
"-0.142995","0.69543","0.515726"
"-0.715809","0.636706","-0.011257"
"-0.608907","0.599599","0.163457"
"-0.401935","0.499301","0.353716"
"0.19700399999999998","0.088702","0.100021"
"0.334556","0.029116000000000003","0.008686"
"0.079996","-0.101597","0.403739"
"-0.043476","-0.33484","0.58777"
"-0.095907","-0.524721","0.700674"
"0.052075","-0.8544290000000001","0.609475"
"-0.028497","-0.735694","0.515058"
"-0.053441999999999996","-0.697792","0.501567"
"-0.12493399999999999","-0.727775","0.472496"
"-0.21218499999999998","-0.706469","0.37553200000000003"
"-0.231908","-0.709229","0.270048"
"-0.225082","-0.317705","0.010448"
"-0.243707","0.5388930000000001","-0.369258"
"-0.351648","2.489627","-1.103958"
"-0.756356","1.374373","-1.3241129999999999"
"-0.272503","-0.604817","-0.76695"
"-0.128329","-0.8538","-0.11246400000000001"
"-0.09761","-0.04349","0.6487390000000001"
"0.259968","0.311682","1.195302"
"0.028656","1.079883","0.99464"
"0.11367000000000001","0.49726099999999995","0.19504100000000002"
"0.234812","-0.181864","0.783597"
"-0.177538","-0.173515","0.396043"
"-0.019188999999999998","0.360272","-0.056446"
"0.012163","0.045949000000000004","0.501976"
"0.037872","-0.187616","0.456578"
"0.041427","0.0020829999999999998","0.304638"
"0.032178","-0.19626500000000002","0.130674"
"-0.058681","-0.19881300000000002","0.182783"
"-0.137175","-0.35748","0.137322"
"-0.068789","-0.393764","0.12833"
"-0.11043800000000001","-0.33584899999999995","0.09854"
"-0.194969","-0.173292","0.036775"
"-0.176058","-0.094342","-0.207155"
"-0.004529","0.08332","-0.11108299999999999"
"0.08617799999999999","0.25352600000000003","-0.44536899999999996"
"0.13635799999999998","0.405859","-0.666324"
"0.11629300000000001","0.269148","-0.440989"
"0.042835000000000005","0.41189899999999996","-0.528335"
"0.30292600000000003","0.30292600000000003","-0.253783"
"0.281476","0.32742","-0.157521"
"0.172511","0.368112","-0.106743"
"-0.226296","0.34362800000000004","-0.41356000000000004"
"-0.20130399999999998","0.19802899999999998","-0.227741"
"-0.26155","0.105986","-0.014772"
"-0.167121","0.449956","0.295213"
"0.060287","0.738533","0.430468"
"-0.41080200000000006","0.8957040000000001","0.22868899999999998"
"-0.726576","0.736736","0.000735"
"-0.31600500000000004","0.5827359999999999","0.415911"
"0.02242","0.245417","0.310082"
"0.257252","-0.009134999999999999","0.12294200000000001"
"0.336419","-0.103344","-0.155444"
"0.006845","-0.270363","0.38647800000000004"
"-0.07355","-0.455797","0.700289"
"0.084952","-0.700628","0.66159"
"0.109047","-0.716449","0.65166"
"0.004403","-0.694968","0.5834630000000001"
"-0.06669800000000001","-0.6802229999999999","0.524197"
"-0.169686","-0.657896","0.503251"
"-0.23837399999999997","-0.67203","0.39424899999999996"
"-0.324461","-0.5657439999999999","0.183293"
"-0.233744","-0.32871","-0.016142"
"-0.209425","0.375564","-0.404856"
"-0.21640500000000001","2.291689","-1.227957"
"-0.633631","1.477898","-1.278634"
"-0.24514499999999997","-0.48822600000000005","-0.8835860000000001"
"-0.208035","-0.816413","-0.069753"
"-0.17113399999999998","-0.040121","0.710026"
"0.21218800000000002","0.642951","1.372671"
"0.11336500000000001","1.123877","1.118891"
"0.29927800000000004","0.178174","0.198874"
"-0.119373","-0.22389499999999998","0.522008"
"-0.164909","-0.203515","0.132518"
"0.012276","0.08949700000000001","0.055337"
"0.031620999999999996","0.038278","0.62669"
"-0.002508","0.10725499999999999","0.568797"
"-0.046708","-0.057210000000000004","0.219058"
"-0.119559","-0.315795","0.381898"
"-0.090164","-0.331347","0.319967"
"-0.047486","-0.271714","0.22411799999999998"
"-0.086297","-0.13960999999999998","0.12509"
"-0.102033","-0.120689","0.064971"
"-0.11943800000000002","-0.202766","0.025432"
"0.0023829999999999997","-0.03383","-0.1171"
"0.022363","0.046159","-0.209021"
"0.012740000000000001","0.1293","-0.381075"
"0.08776","0.30584","-0.44151"
"0.058425","0.40297","-0.50654"
"0.269336","0.366786","-0.29085900000000003"
"0.328415","0.281283","-0.13912"
"0.251186","0.39600599999999997","-0.10332000000000001"
"-0.101664","0.45341099999999995","-0.327815"
"-0.177284","0.40762800000000005","-0.377103"
"-0.11193900000000001","0.17288800000000001","-0.117601"
"-0.31728","0.102076","-0.04793"
"-0.1271","0.283157","0.174137"
"0.040764","0.517904","0.34441700000000003"
"-0.372703","0.834578","0.15099"
"-0.563249","0.651317","0.030784"
"-0.208898","0.490259","0.44932700000000003"
"0.047813999999999995","0.169824","0.24699200000000002"
"0.24694899999999997","-0.164415","-0.007206000000000001"
"0.229804","-0.135984","0.007647"
"0.040264999999999995","-0.205616","0.561534"
"-0.032501999999999996","-0.390949","0.667979"
"0.036095999999999996","-0.586907","0.646468"
"0.059315","-0.57476","0.569287"
"-0.050062","-0.575303","0.5173760000000001"
"-0.11683299999999999","-0.590448","0.505892"
"-0.198062","-0.732374","0.420854"
"-0.274308","-0.652224","0.371367"
"-0.32198699999999997","-0.624826","0.31539"
"-0.23484899999999997","-0.234377","0.084923"
"-0.300568","0.357333","-0.290002"
"-0.288376","1.035159","-0.674182"
"-0.65654","1.431961","-1.5132290000000002"
"-0.300184","-0.326214","-0.7078939999999999"
"-0.296458","-0.5669489999999999","-0.09465599999999999"
"0.107189","0.099662","0.578225"
"0.32827399999999995","0.661051","0.940634"
"0.272279","0.9206139999999999","0.849316"
"0.220392","-0.004157","0.552854"
"-0.054013","-0.73685","1.05949"
"-0.287331","-0.21315","0.163192"
"0.084996","0.40966800000000003","0.193779"
"0.268327","-0.087156","0.538905"
"0.107176","-0.180239","0.373361"
"-0.071413","-0.25438099999999997","0.143559"
"-0.23928200000000002","-0.213344","0.4288"
"-0.031407","-0.280683","0.223027"
"0.066368","-0.154802","0.043828"
"0.037032999999999996","-0.10120599999999999","0.021374"
"-0.05160700000000001","-0.110142","-0.160154"
"-0.049838","-0.013614","-0.172956"
"0.027920999999999998","0.09085399999999999","-0.171158"
"0.026677","0.17504","-0.269024"
"-0.055941","0.304469","-0.35349400000000003"
"-0.11218099999999999","0.328208","-0.521933"
"0.006795000000000001","0.279397","-0.48807799999999996"
"0.24910500000000002","0.228332","-0.27252"
"0.252417","0.24961799999999998","-0.20584299999999997"
"0.016834000000000002","0.194636","-0.082969"
"-0.206073","0.308446","-0.349783"
"-0.166192","0.360671","-0.347192"
"-0.154372","0.32715700000000003","-0.286903"
"-0.270739","0.17627400000000001","-0.088693"
"-0.05901699999999999","0.325745","0.14665599999999998"
"0.06616799999999999","0.540849","0.391586"
"-0.24774699999999997","0.688621","0.447571"
"-0.711674","0.6934319999999999","-0.060474"
"-0.637458","0.6756340000000001","0.21626599999999999"
"-0.277413","0.52137","0.481975"
"0.115548","0.010771","0.19497799999999998"
"0.23108299999999998","-0.077021","0.182118"
"0.301774","-0.039006","0.033692"
"-0.022362","-0.447008","0.611822"
"-0.026266","-0.430123","0.6460140000000001"
"0.107024","-0.757473","0.545454"
"0.051424","-0.6736479999999999","0.558198"
"0.061689999999999995","-0.631224","0.55416"
"-0.097975","-0.697343","0.5063880000000001"
"-0.222252","-0.738813","0.45038999999999996"
"-0.27117600000000003","-0.7041310000000001","0.29927800000000004"
"-0.253004","-0.604988","0.009255"
"-0.21975799999999998","-0.058793","-0.231686"
"-0.256821","1.245287","-0.923185"
"-0.673743","2.4119490000000003","-1.162696"
"-0.357971","0.290124","-1.047703"
"-0.201218","-0.764828","-0.340521"
"-0.377653","-0.22710300000000003","0.389054"
"0.196035","0.503196","1.1508909999999999"
"0.33161999999999997","0.867976","1.02661"
"0.178741","0.1138","0.49757799999999996"
"0.28149","-0.147098","0.7643949999999999"
"0.14172","-0.19103699999999998","0.519159"
"0.230873","0.38009","0.446838"
"-0.019015999999999998","-0.069851","0.513021"
"-0.145966","-0.058821000000000005","0.23713"
"-0.054475","-0.218969","0.2457"
"-0.27361199999999997","-0.27945","0.18803699999999998"
"-0.158113","-0.343912","0.198223"
"0.126187","-0.345976","0.158643"
"0.046667","-0.261354","0.074492"
"-0.039554","-0.1629","0.045312"
"-0.047493","-0.063917","-0.14563399999999999"
"-0.041418","0.024483","-0.148205"
"-0.037384","0.109327","-0.128728"
"0.01874","0.20357","-0.43365699999999996"
"0.116625","0.29642399999999997","-0.39600100000000005"
"0.043398","0.334373","-0.34505399999999997"
"0.02017","0.488613","-0.44051"
"0.338213","0.32156999999999997","-0.20754"
"0.299786","0.32721","-0.16053399999999998"
"-0.019091","0.348242","-0.18959700000000002"
"-0.067121","0.431733","-0.355116"
"0.021875","0.16353499999999999","-0.134352"
"-0.143752","0.051928999999999996","0.06154"
"-0.29292199999999996","0.146287","0.235673"
"-0.250658","0.309041","0.433841"
"-0.231963","0.48849799999999993","0.5049859999999999"
"-0.6146119999999999","0.575194","-0.041881"
"-0.6291","0.5814199999999999","0.009715999999999999"
"-0.312271","0.637604","0.407124"
"0.215939","0.17699700000000002","0.23587399999999997"
"0.255458","0.199692","0.31860900000000003"
"0.289787","-0.137189","0.009956"
"-0.064012","-0.40103099999999997","0.54797"
"-0.064885","-0.38694","0.576094"
"0.01215","-0.67515","0.667954"
"0.01846","-0.629009","0.562376"
"-0.009461","-0.5415479999999999","0.49953000000000003"
"-0.08699","-0.542551","0.497874"
"-0.186542","-0.614376","0.46026999999999996"
"-0.23493899999999998","-0.657506","0.338217"
"-0.301496","-0.536238","0.145387"
"-0.283403","-0.225848","-0.013080000000000001"
"-0.249698","0.562547","-0.48458"
"-0.24101199999999998","2.135252","-1.118882"
"-0.495068","0.974721","-1.0736450000000002"
"-0.24466500000000002","-0.350985","-0.8391649999999999"
"-0.261986","-0.30141","0.204369"
"-0.380484","0.074812","0.555592"
"-0.065082","0.49890500000000004","0.825026"
"0.20346","0.516202","0.802179"
"0.172244","-0.187818","0.704707"
"0.02998","-0.473246","0.8660129999999999"
"-0.027783999999999996","0.054407000000000004","0.36204000000000003"
"0.384092","0.597284","0.33374000000000004"
"0.378757","0.17504","0.536524"
"-0.004979","-0.079687","0.264204"
"-0.09776699999999999","-0.05419500000000001","0.177649"
"-0.251546","-0.202935","0.10319500000000001"
"-0.199821","-0.272045","0.128796"
"-0.087309","-0.354594","0.135007"
"-0.12801500000000002","-0.288706","0.043082999999999996"
"-0.051551","-0.195258","0.016611"
"0.002356","-0.099473","-0.007201999999999999"
"0.050831","-0.157248","-0.110377"
"-0.010265999999999999","-0.072476","-0.069449"
"-0.123233","0.13035","-0.164715"
"0.100674","0.246806","-0.501667"
"0.128555","0.27237","-0.36898000000000003"
"-0.037991000000000004","0.448246","-0.40616599999999997"
"0.023657","0.44013599999999997","-0.395739"
"0.141057","0.327389","-0.267667"
"0.065962","0.291444","-0.25172"
"-0.079206","0.319471","-0.35139000000000004"
"-0.22036","0.297189","-0.428508"
"-0.237779","0.10738900000000001","-0.223448"
"-0.202737","-0.0019579999999999997","-0.107268"
"-0.160601","-0.074099","0.072532"
"0.115049","0.8271209999999999","0.545925"
"-0.018571","0.894818","0.580591"
"-0.388493","0.838781","0.48707799999999996"
"-0.590287","0.645284","0.275986"
"-0.312967","0.597012","0.298556"
"-0.066621","0.552198","0.25795500000000005"
"0.342357","0.048747000000000006","-0.060465"
"0.22347899999999998","0.04398","0.049238"
"-0.070341","-0.22616599999999998","0.5301779999999999"
"-0.024162","-0.564241","0.6743359999999999"
"0.098508","-0.804443","0.6133270000000001"
"0.119328","-0.8234879999999999","0.583469"
"0.06944600000000001","-0.762174","0.536424"
"0.014897","-0.747804","0.544204"
"-0.211988","-0.7614989999999999","0.513048"
"-0.321579","-0.710681","0.35933200000000004"
"-0.3598","-0.681528","0.246837"
"-0.254859","0.04863","-0.150349"
"-0.22035700000000003","1.533436","-0.982389"
"-0.347814","2.624916","-1.268129"
"-0.404896","-0.063092","-1.2286290000000002"
"-0.229539","-0.765725","-0.378104"
"-0.383377","0.060203999999999994","0.266804"
"0.160262","0.698691","0.778496"
"0.205017","1.183047","0.7278939999999999"
"0.17388","-0.072326","0.668639"
"0.012186","-0.51065","1.0290569999999999"
"-0.27408899999999997","-0.44852700000000006","0.553313"
"0.084762","0.599329","-0.130806"
"0.403645","0.444537","0.73433"
"0.167876","0.016314","0.49050699999999997"
"-0.0048909999999999995","0.004912","0.26306"
"0.029807","0.003968","0.252687"
"-0.017369","-0.295736","0.317875"
"-0.128189","-0.292219","0.264131"
"-0.188247","-0.310058","0.081834"
"-0.043011","-0.363385","-0.038373000000000004"
"0.07221","-0.401945","0.019158"
"-0.025810000000000003","-0.295084","-0.058321000000000005"
"-0.124536","0.08822100000000001","-0.161725"
"-0.052127","0.132949","-0.47152200000000005"
"0.086332","0.199126","-0.6807840000000001"
"0.001027","0.40808099999999997","-0.49722"
"-0.028737000000000002","0.508962","-0.665158"
"0.13656400000000002","0.45891400000000004","-0.614373"
"0.31869200000000003","0.44758400000000004","-0.146829"
"0.139222","0.49880699999999994","-0.246797"
"-0.023875999999999998","0.45086000000000004","-0.359074"
"-0.007659999999999999","0.093267","0.07077699999999999"
"-0.082957","0.044746","0.210312"
"-0.256654","0.24878699999999998","0.203512"
"-0.27098099999999997","0.60314","0.43584799999999996"
"-0.28010300000000005","0.656297","0.449245"
"-0.41231999999999996","0.658853","0.411921"
"-0.5687939999999999","0.678623","0.016541"
"-0.10339300000000001","0.366123","0.510542"
"0.129769","0.18342999999999998","0.150853"
"0.31231","-0.0409","0.099608"
"0.352365","-0.16834000000000002","0.160879"
"-0.07193200000000001","-0.465232","0.7301979999999999"
"-0.05582","-0.6654140000000001","0.715217"
"0.007687","-0.764785","0.631792"
"-0.074012","-0.650502","0.5110060000000001"
"-0.093199","-0.6322840000000001","0.485134"
"-0.125002","-0.725386","0.47135299999999997"
"-0.244813","-0.681886","0.401672"
"-0.254485","-0.645151","0.201058"
"-0.255198","-0.591598","0.071422"
"-0.229798","0.077427","-0.202229"
"-0.318184","1.49187","-0.9531540000000001"
"-0.6225","2.380072","-1.151589"
"-0.40996499999999997","-0.030168","-1.265944"
"-0.252869","-0.773753","-0.23130900000000001"
"-0.311802","-0.005894","0.393494"
"0.215297","0.317479","1.2678049999999998"
"0.038881","0.8097989999999999","0.900777"
"0.0148","0.257301","0.413166"
"0.13186199999999998","-0.131965","0.692492"
"0.027522","0.007768000000000001","0.294797"
"0.097548","0.405927","-0.0031780000000000003"
"0.167502","0.645601","0.203477"
"0.102853","-0.020288","0.452981"
"0.055372000000000005","-0.036258","0.383902"
"-0.120093","-0.155063","0.239902"
"-0.060876","-0.203276","0.47045"
"-0.072823","-0.205804","0.421804"
"-0.180824","-0.28558","0.081765"
"-0.097379","-0.386507","-0.096638"
"-0.072155","-0.393169","-0.18043199999999998"
"-0.058293","-0.31717","-0.158882"
"0.02795","0.019998","-0.263943"
"0.013781","0.092725","-0.37496199999999996"
"0.069396","0.22188000000000002","-0.377384"
"0.051226","0.321454","-0.444932"
"0.12615","0.549133","-0.612278"
"0.321351","0.383079","-0.38501599999999997"
"0.254713","0.434841","-0.141075"
"-0.11446300000000001","0.546135","-0.320357"
"-0.174154","0.38500500000000004","-0.374292"
"-0.044114","0.291365","-0.161592"
"-0.109275","0.068155","0.11771500000000001"
"-0.308187","0.512347","0.265345"
"-0.221073","0.619038","0.47343500000000005"
"-0.30335300000000004","0.574867","0.44162700000000005"
"-0.6200680000000001","0.57424","0.101208"
"-0.46954799999999997","0.5204449999999999","0.173217"
"-0.060890999999999994","0.30704899999999996","0.49123999999999995"
"0.17619500000000002","0.078216","0.05778"
"0.348217","-0.09793500000000001","0.09299400000000001"
"0.171105","-0.19229200000000002","0.405481"
"0.015252000000000002","-0.47073400000000004","0.742924"
"0.055958","-0.704191","0.70917"
"-0.035435","-0.674048","0.571326"
"-0.10313699999999999","-0.687393","0.480835"
"-0.12933699999999998","-0.661909","0.45029600000000003"
"-0.152313","-0.767984","0.448769"
"-0.23349099999999998","-0.701105","0.367044"
"-0.27026700000000003","-0.594241","0.22021500000000002"
"-0.263847","-0.320089","0.036491"
"-0.303349","0.45757700000000007","-0.430413"
"-0.378652","2.293089","-1.099307"
"-0.5390229999999999","1.222539","-1.5510979999999999"
"-0.174984","-0.396561","-0.8708969999999999"
"-0.264009","-0.410933","-0.03356"
"-0.20365","0.494777","0.520744"
"0.100089","0.8230290000000001","1.0922610000000001"
"0.04373","0.366203","0.736563"
"-0.0039310000000000005","-0.5331060000000001","0.612191"
"-0.10864800000000001","-0.497813","0.9069459999999999"
"0.225689","0.793325","-0.136656"
"0.44700100000000004","0.9277040000000001","0.314285"
"0.481204","0.496964","0.6487539999999999"
"-0.050964999999999996","-0.054822","0.124636"
"-0.095016","-0.065942","0.130056"
"-0.090577","-0.097223","0.300831"
"-0.21691999999999997","-0.180697","0.23485799999999998"
"-0.195185","-0.198606","0.180869"
"-0.12137300000000001","-0.238796","0.103521"
"0.11984500000000001","-0.324434","-0.020463"
"0.123945","-0.342434","-0.073404"
"0.062048","-0.30180100000000004","-0.127557"
"-0.163","0.002341","-0.151314"
"-0.11468800000000001","0.016702","-0.3849"
"0.155331","0.252787","-0.514355"
"0.004918","0.291688","-0.413271"
"-0.058066999999999994","0.39303899999999997","-0.491625"
"0.26308200000000004","0.290141","-0.247018"
"0.152374","0.455692","-0.027989999999999998"
"-0.210196","0.458182","-0.444992"
"-0.21796500000000002","0.334636","-0.387965"
"-0.010860999999999999","0.116597","-0.098287"
"0.022249","0.070887","0.10262"
"-0.096762","0.550562","0.147025"
"-0.258038","0.735621","0.46385699999999996"
"-0.41438400000000003","0.78287","0.46820900000000004"
"-0.7296630000000001","0.711581","0.174274"
"-0.511994","0.544678","0.277425"
"-0.283699","0.532798","0.47382399999999997"
"0.101185","0.07573300000000001","0.075722"
"0.34341900000000003","-0.114882","-0.033047"
"0.179026","-0.21091100000000002","0.334378"
"-0.06552999999999999","-0.374198","0.7436020000000001"
"-0.065419","-0.5725399999999999","0.7335119999999999"
"-0.019704","-0.690987","0.576583"
"-0.040195","-0.6885319999999999","0.5725979999999999"
"-0.024669999999999997","-0.661998","0.515614"
"-0.026106","-0.70219","0.508039"
"-0.226023","-0.653641","0.46136400000000005"
"-0.297621","-0.6642779999999999","0.311502"
"-0.31007399999999996","-0.622707","0.177697"
"-0.230181","0.023846","-0.21062899999999998"
"-0.325327","1.3895899999999999","-0.993798"
"-0.606557","2.228636","-1.277619"
"-0.21051999999999998","0.028762","-0.990014"
"-0.235663","-0.67118","-0.28536300000000003"
"-0.354375","0.06893400000000001","0.322912"
"0.12761199999999998","0.5205850000000001","0.9522209999999999"
"0.045302999999999996","0.8850870000000001","1.172722"
"0.100477","0.667928","0.568865"
"0.030223000000000003","-0.624657","0.414889"
"-0.283131","-0.215313","0.509302"
"-0.081198","0.252894","-0.097348"
"0.19553299999999998","0.710407","-0.192733"
"0.090599","-0.11582100000000001","0.565181"
"-0.155583","-0.060444000000000005","0.386261"
"-0.230611","0.007468000000000001","0.24436300000000002"
"-0.118308","-0.17620999999999998","0.241346"
"-0.100327","-0.15400999999999998","0.1965"
